Sensor, acceleration x(*1000), acceleration y(*1000), acceleration z(*1000), gyro x, gyro y, gyro z, Hour ,Initial Date: ,08/03/2022 14:10:48.369932 GMT,29940
acc002, 73.00, 46.39, 1075.93, -0.85, -1.28, -0.85,37153,,,
acc002, 75.68, 52.49, 1072.02, -2.01, -3.60, -0.73,37164,,,
acc002, 75.20, 51.76, 1072.02, -2.32, -4.21, -0.67,37175,,,
acc002, 80.08, 50.78, 1063.72, -2.44, -4.52, -0.67,37186,,,
acc002, 76.17, 50.78, 1067.38, -2.32, -3.66, -0.49,37197,,,
acc002, 79.59, 46.14, 1066.16, -1.53, -2.62, -0.61,37208,,,
acc002, 82.03, 56.40, 1073.00, -1.22, -1.95, -0.61,37221,,,
acc002, 80.81, 45.17, 1065.43, -0.79, -1.53, -0.67,37232,,,
acc002, 81.05, 50.05, 1062.26, 0.31, 0.79, -0.73,37243,,,
acc002, 78.12, 52.73, 1071.53, 1.46, 3.72, -0.61,37254,,,
acc002, 78.86, 47.85, 1068.85, 0.49, 1.89, -0.37,37265,,,
acc002, 83.25, 54.69, 1082.76, -0.12, 1.83, 0.43,37276,,,
acc002, 76.66, 47.12, 1067.63, -1.95, -0.92, 0.67,37287,,,
acc002, 78.37, 43.21, 1057.13, -2.62, -0.92, 0.92,37301,,,
acc002, 73.49, 45.41, 1078.86, -2.38, 0.18, 0.49,37312,,,
acc002, 80.57, 51.27, 1090.33, -4.70, -1.77, 0.49,37325,,,
acc002, 71.29, 45.41, 1092.04, -9.22, -5.49, 1.10,37336,,,
acc002, 72.02, 43.70, 1054.93, -11.11, -9.77, 0.98,37347,,,
acc002, 94.48, 63.48, 1092.77, -11.35, -9.16, 1.10,37358,,,
acc002, 56.64, 20.26, 1044.43, -13.43, -10.86, 1.77,37369,,,
acc002, 90.09, 38.09, 1062.99, -7.39, -8.54, 0.18,37380,,,
acc002, 98.63, 56.40, 1098.88, -8.61, -9.52, 0.79,37391,,,
acc002, 88.38, 25.15, 1039.79, -11.66, -10.19, 1.34,37402,,,
acc002, 92.77, 23.44, 1029.30, 0.55, -0.85, -0.49,37413,,,
acc002, 78.61, 33.69, 1083.25, 4.15, 1.83, -1.10,37427,,,
acc002, 97.41, 32.71, 1070.31, 3.78, -3.54, -1.40,37438,,,
acc002, 87.89, 35.40, 1074.71, 3.11, -0.18, -0.79,37449,,,
acc002, 93.51, 39.06, 1073.24, 1.04, -0.61, -0.79,37460,,,
acc002, 91.06, 36.38, 1065.19, 0.24, -0.98, -0.61,37472,,,
acc002, 88.38, 32.96, 1072.02, 0.43, -0.61, -0.43,37483,,,
acc002, 92.53, 35.64, 1067.14, 0.24, -0.43, -0.49,37494,,,
acc002, 93.02, 33.20, 1066.65, -0.12, 0.18, -0.43,37508,,,
acc002, 89.84, 38.82, 1078.13, 0.12, 0.92, -0.55,37521,,,
acc002, 90.33, 33.45, 1066.41, 0.24, 0.55, -0.49,37532,,,
acc002, 90.09, 36.13, 1069.58, 0.55, 1.04, -0.55,37543,,,
acc002, 92.29, 34.18, 1061.77, 0.18, 0.49, -0.61,37554,,,
acc002, 85.21, 39.06, 1077.64, 0.79, 1.77, -0.67,37565,,,
acc002, 88.38, 35.40, 1070.31, 0.00, 0.61, -0.55,37576,,,
acc002, 91.06, 31.01, 1063.72, -0.12, 0.24, -0.43,37587,,,
acc002, 90.33, 33.94, 1065.43, 0.18, 1.22, -0.61,37598,,,
acc002, 89.36, 36.13, 1068.85, 0.49, 1.59, -0.61,37609,,,
acc002, 87.16, 40.28, 1073.97, 0.55, 1.83, -0.61,37622,,,
acc002, 88.13, 34.18, 1072.02, 1.10, 3.60, -0.73,37633,,,
acc002, 88.13, 37.84, 1064.94, 0.43, 2.62, -0.73,37644,,,
acc002, 84.96, 33.45, 1071.78, 1.71, 4.27, -0.85,37655,,,
acc002, 83.74, 32.96, 1068.36, 0.79, 2.20, -0.85,37667,,,
acc002, 85.69, 37.60, 1061.52, 1.22, 2.44, -1.04,37678,,,
acc002, 83.98, 34.91, 1068.36, 1.34, 2.44, -1.04,37689,,,
acc002, 84.96, 35.16, 1065.43, 1.34, 3.48, -1.10,37700,,,
acc002, 79.35, 35.64, 1073.00, 2.08, 2.56, -1.22,37714,,,
acc002, 84.23, 34.91, 1064.70, 3.17, 2.62, -1.40,37728,,,
acc002, 73.97, 28.08, 1042.72, 3.48, 2.32, -1.59,37738,,,
acc002, 82.03, 43.70, 1064.70, 8.79, 6.35, -2.75,37749,,,
acc002, 83.25, 38.82, 1054.93, 8.06, 5.98, -2.38,37760,,,
acc002, 81.79, 40.04, 1042.24, 7.69, 6.53, -2.32,37771,,,
acc002, 81.05, 56.40, 1089.60, 7.93, 7.63, -2.50,37782,,,
acc002, 77.88, 39.31, 1059.08, 2.38, 3.72, -1.46,37793,,,
acc002, 83.74, 47.36, 1050.05, 2.81, 4.33, -1.40,37804,,,
acc002, 78.86, 40.04, 1052.25, 5.37, 9.58, -1.46,37815,,,
acc002, 97.17, 55.66, 1039.79, 7.32, 14.65, -0.98,37829,,,
acc002, 59.81, 48.10, 1096.44, 6.59, 20.20, 0.55,37840,,,
acc002, 52.25, 48.83, 1068.12, 4.58, 12.88, 0.85,37851,,,
acc002, 62.01, 53.22, 1073.97, 5.31, 11.35, 0.24,37862,,,
acc002, 52.98, 51.27, 1077.88, 4.82, 8.18, -0.31,37874,,,
acc002, 57.37, 55.91, 1078.13, 3.60, 5.74, -1.22,37885,,,
acc002, 55.66, 58.84, 1080.08, 2.50, 2.75, -1.40,37896,,,
acc002, 57.37, 58.11, 1073.97, 1.46, 0.98, -1.28,37907,,,
acc002, 54.93, 47.85, 1073.73, 1.04, -0.49, -2.08,37921,,,
acc002, 74.22, 51.76, 1078.13, 1.16, -4.33, -3.48,37934,,,
acc002, 72.51, 69.34, 1066.65, 0.61, -3.42, -2.69,37945,,,
acc002, 63.48, 54.93, 1069.09, 0.24, -0.61, -1.04,37956,,,
acc002, 62.74, 49.07, 1073.24, 0.37, -0.43, -1.10,37967,,,
acc002, 63.96, 67.87, 1064.45, 0.49, -0.79, -1.65,37978,,,
acc002, 52.49, 66.65, 1073.49, -0.12, 0.79, -0.49,37989,,,
acc002, 57.13, 65.43, 1075.44, -0.73, 0.00, -0.43,38000,,,
acc002, 83.98, 101.81, 1114.01, -34.36, -48.22, 4.27,38011,,,
acc002, 84.47, 27.59, 1044.43, 2.50, 1.22, -2.08,38024,,,
acc002, 62.99, 88.62, 1081.79, 1.53, 3.23, -1.59,38035,,,
acc002, 71.04, 59.08, 1073.00, -0.37, -0.06, -1.16,38046,,,
acc002, 74.71, 44.68, 1065.67, 0.12, 0.31, -0.73,38058,,,
acc002, 64.94, 37.60, 1029.79, 0.49, 0.49, -0.85,38069,,,
acc002, 64.21, 50.05, 1062.50, 3.36, 1.59, -1.77,38080,,,
acc002, 35.40, 44.19, 1082.28, 5.25, 0.61, -3.66,38091,,,
acc002, 82.52, 55.66, 1070.80, 2.99, 2.08, -3.42,38102,,,
acc002, 83.25, 54.93, 1078.86, 1.83, 2.75, -1.89,38114,,,
acc002, 80.32, 50.78, 1056.88, 1.10, 3.42, -0.73,38130,,,
acc002, 81.54, 55.66, 1056.15, 1.77, 4.76, -0.31,38141,,,
acc002, 92.04, 55.18, 1074.46, 2.81, 8.24, 0.67,38152,,,
acc002, 49.56, 65.43, 1075.93, 1.28, 3.11, 0.18,38162,,,
acc002, 58.35, 65.19, 1076.90, -0.31, 1.10, -0.55,38173,,,
acc002, 70.80, 29.79, 1065.43, -1.04, -0.85, -0.55,38184,,,
acc002, 64.94, 56.64, 1067.63, 0.18, 0.49, -0.67,38195,,,
acc002, 63.72, 54.44, 1067.63, 0.37, 0.67, -0.79,38206,,,
acc002, 68.36, 49.56, 1066.65, -0.06, 0.79, -0.79,38217,,,
acc002, 64.21, 54.69, 1075.93, -0.92, 0.67, -0.67,38231,,,
acc002, 64.21, 52.00, 1081.79, -3.42, -1.83, -1.04,38242,,,
acc002, 65.92, 51.27, 1070.80, -5.43, -4.27, -0.73,38253,,,
acc002, 67.14, 42.97, 1072.75, -4.64, -4.46, -0.92,38264,,,
acc002, 66.89, 46.63, 1070.07, -4.58, -5.92, -0.73,38276,,,
acc002, 73.97, 50.05, 1065.43, -4.15, -6.16, -0.49,38287,,,
acc002, 72.75, 53.47, 1077.64, -3.78, -5.62, -0.43,38298,,,
acc002, 79.10, 51.03, 1065.19, -4.94, -6.84, -0.18,38309,,,
acc002, 67.14, 43.21, 1068.36, -3.48, -3.85, -0.55,38325,,,
acc002, 66.16, 46.88, 1054.69, -3.23, -4.27, -0.67,38336,,,
acc002, 68.85, 71.04, 1092.04, -1.34, -2.93, -1.40,38347,,,
acc002, 68.12, 42.48, 1033.69, -4.88, -4.64, -1.34,38358,,,
acc002, 114.26, 6.35, 1030.03, 5.49, 7.45, -2.93,38369,,,
acc002, 70.80, 41.75, 1092.77, 8.42, 8.91, -2.26,38380,,,
acc002, 69.82, 52.73, 1082.76, 7.57, 10.93, -2.38,38391,,,
acc002, 68.85, 50.54, 1071.53, 5.86, 9.83, -1.71,38402,,,
acc002, 67.63, 52.25, 1083.01, 5.19, 8.61, -1.59,38413,,,
acc002, 69.09, 50.78, 1074.95, 3.48, 6.53, -1.28,38426,,,
acc002, 65.43, 48.58, 1076.17, 3.17, 5.43, -1.34,38437,,,
acc002, 65.43, 51.76, 1076.90, 2.75, 5.25, -1.22,38448,,,
acc002, 63.72, 54.69, 1073.00, 1.95, 4.46, -1.10,38460,,,
acc002, 64.21, 54.93, 1073.73, 1.10, 2.87, -0.85,38471,,,
acc002, 63.96, 50.05, 1073.73, 0.00, 0.73, -0.67,38482,,,
acc002, 63.48, 52.25, 1070.80, -0.06, 0.06, -0.73,38493,,,
acc002, 61.77, 52.49, 1074.95, -0.06, -0.49, -0.79,38504,,,
acc002, 63.96, 50.54, 1070.31, -0.12, -1.16, -0.92,38515,,,
acc002, 69.82, 59.57, 1085.94, -2.69, -5.49, -0.31,38532,,,
acc002, 66.65, 51.51, 1067.87, -6.47, -10.38, 0.43,38543,,,
acc002, 63.96, 54.20, 1068.12, -6.53, -10.25, 0.61,38553,,,
acc002, 70.56, 53.47, 1085.45, -8.85, -13.73, 0.98,38564,,,
acc002, 65.19, 38.33, 1041.26, -8.61, -12.76, 0.92,38575,,,
acc002, 72.51, 47.85, 1066.65, -4.64, -8.18, -0.18,38586,,,
acc002, 76.42, 43.70, 1062.01, -2.44, -4.46, -0.43,38597,,,
acc002, 76.90, 49.32, 1065.43, -1.77, -3.11, -0.61,38608,,,
acc002, 78.86, 46.63, 1058.84, -1.22, -2.87, -0.55,38621,,,
acc002, 69.82, 41.02, 1082.76, 0.31, -0.24, -0.73,38633,,,
acc002, 103.03, 30.76, 1049.32, 1.04, 1.46, -0.24,38644,,,
acc002, 77.15, 43.95, 1070.56, 1.40, 1.59, 0.37,38655,,,
acc002, 50.05, 68.60, 1081.30, 1.71, 1.95, -0.18,38666,,,
acc002, 74.46, 47.12, 1070.56, -0.31, -0.61, -0.73,38677,,,
acc002, 83.98, 44.92, 1060.55, -0.18, -0.43, -0.73,38688,,,
acc002, 76.42, 45.17, 1065.19, 0.67, 1.22, -0.61,38699,,,
acc002, 71.78, 38.57, 1074.22, 2.08, 3.17, -0.49,38711,,,
acc002, 73.24, 43.46, 1065.43, 1.40, 2.14, -0.55,38724,,,
acc002, 73.97, 49.32, 1076.66, 2.08, 2.75, -0.67,38738,,,
acc002, 74.46, 49.80, 1070.80, 1.53, 2.62, -0.73,38749,,,
acc002, 77.64, 50.29, 1067.63, 0.92, 2.26, -0.49,38760,,,
acc002, 78.37, 51.51, 1068.36, 0.55, 2.50, -0.31,38771,,,
acc002, 81.54, 46.39, 1054.69, -3.23, -5.37, -0.67,38931,,,
acc002, 80.57, 42.48, 1059.33, -2.01, -3.42, -0.85,38942,,,
acc002, 78.37, 43.95, 1062.99, -0.61, -1.34, -1.04,38953,,,
acc002, 78.37, 48.34, 1082.03, -1.46, -1.65, -0.98,38964,,,
acc002, 81.54, 46.14, 1063.23, -1.40, -2.01, -0.85,38977,,,
acc002, 85.94, 45.17, 1065.67, -1.22, -1.53, -0.73,38988,,,
acc002, 74.71, 43.95, 1071.78, -0.49, -0.31, -0.79,38999,,,
acc002, 77.88, 42.97, 1076.90, -0.61, -0.61, -0.85,39010,,,
acc002, 77.88, 46.39, 1075.68, -0.61, -0.73, -1.04,39021,,,
acc002, 73.73, 43.21, 1068.60, -1.71, -1.10, -0.79,39032,,,
acc002, 81.05, 45.41, 1070.31, -1.53, -1.34, -0.79,39043,,,
acc002, 80.57, 44.92, 1072.02, -1.46, -1.53, -0.73,39054,,,
acc002, 80.08, 42.97, 1065.19, -1.59, -0.98, -0.79,39067,,,
acc002, 70.31, 17.82, 1078.13, -1.59, -1.16, -0.67,39078,,,
acc002, 60.55, 36.38, 1070.31, -1.34, -0.61, -0.61,39089,,,
acc002, 86.18, 38.09, 1066.89, -0.37, 0.31, -0.61,39101,,,
acc002, 78.86, 37.84, 1066.16, 0.67, 0.79, -0.73,39112,,,
acc002, 75.93, 42.72, 1074.22, 0.92, 1.04, -0.98,39123,,,
acc002, 82.76, 40.53, 1062.74, 0.79, 0.37, -1.16,39134,,,
acc002, 86.91, 39.79, 1057.86, 1.53, 1.53, -1.22,39148,,,
acc002, 84.23, 43.46, 1067.87, 2.38, 3.05, -1.16,39159,,,
acc002, 81.54, 41.50, 1069.82, 2.08, 2.99, -0.85,39172,,,
acc002, 83.25, 43.95, 1066.89, 1.59, 2.50, -0.73,39183,,,
acc002, 79.35, 42.97, 1069.58, 1.77, 2.93, -0.73,39194,,,
acc002, 78.86, 46.39, 1068.36, 1.77, 2.75, -0.73,39205,,,
acc002, 77.15, 47.85, 1074.46, 2.20, 3.23, -0.67,39216,,,
acc002, 76.66, 46.39, 1074.46, 1.28, 2.44, -0.55,39227,,,
acc002, 78.12, 45.65, 1066.65, 0.92, 2.14, -0.55,39238,,,
acc002, 76.17, 48.58, 1070.56, 1.10, 2.87, -0.37,39249,,,
acc002, 81.05, 44.19, 1057.37, 1.59, 4.21, -0.18,39260,,,
acc002, 62.50, 50.78, 1053.96, 3.97, 7.69, -0.37,39273,,,
acc002, 67.63, 61.77, 1076.42, 4.94, 9.09, -0.55,39284,,,
acc002, 48.10, 115.97, 1038.09, 4.15, 7.57, 0.00,39296,,,
acc002, 64.70, 35.64, 1056.88, 6.10, 10.13, 2.01,39307,,,
acc002, 78.86, 34.18, 1082.03, 5.00, 7.87, 0.98,39318,,,
acc002, 88.87, 47.85, 1080.57, 2.99, 5.37, 0.92,39329,,,
acc002, 69.82, 47.61, 1075.93, 1.10, 2.99, 1.28,39340,,,
acc002, 74.46, 54.20, 1072.02, 0.06, 1.16, 1.40,39355,,,
acc002, 64.70, 50.29, 1063.96, -0.37, 0.49, 1.71,39365,,,
acc002, 58.11, 28.56, 1066.65, -0.43, -0.31, 0.92,39378,,,
acc002, 61.77, 45.17, 1069.58, -0.12, -0.06, 0.00,39389,,,
acc002, 63.23, 47.12, 1066.41, 0.06, 0.12, -0.37,39400,,,
acc002, 65.19, 51.27, 1071.53, -0.06, 0.12, -0.49,39411,,,
acc002, 63.96, 50.78, 1068.36, -0.31, -0.18, -0.37,39422,,,
acc002, 66.16, 46.39, 1071.29, -0.79, -0.61, -0.31,39433,,,
acc002, 62.99, 52.00, 1076.90, -1.04, -0.98, -0.43,39444,,,
acc002, 63.72, 47.85, 1068.60, -1.28, -1.34, -0.43,39455,,,
acc002, 67.63, 47.61, 1069.09, -1.83, -1.77, -0.49,39469,,,
acc002, 59.81, 49.56, 1066.89, -1.28, -1.10, -0.43,39480,,,
acc002, 61.52, 47.12, 1068.36, -0.12, -0.06, -0.92,39491,,,
acc002, 62.01, 47.61, 1070.07, 0.18, 0.18, -1.10,39502,,,
acc002, 69.34, 52.49, 1071.53, 0.31, 0.49, -1.22,39513,,,
acc002, 69.58, 52.25, 1071.78, 0.12, 0.37, -0.92,39524,,,
acc002, 64.21, 51.27, 1070.07, -0.12, 0.24, -0.73,39536,,,
acc002, 63.48, 47.61, 1067.63, -0.18, 0.18, -0.73,39547,,,
acc002, 61.77, 49.56, 1072.27, -0.31, -0.24, -0.85,39561,,,
acc002, 67.63, 49.07, 1067.63, -0.12, -0.18, -0.85,39574,,,
acc002, 67.87, 48.83, 1069.09, 0.12, 0.18, -0.92,39585,,,
acc002, 63.96, 47.85, 1067.14, 0.37, 0.61, -0.98,39596,,,
acc002, 62.74, 50.05, 1072.75, 0.49, 0.61, -1.04,39607,,,
acc002, 65.19, 51.51, 1065.92, 0.37, 0.37, -1.10,39618,,,
acc002, 64.70, 52.00, 1069.34, 0.24, 0.24, -1.10,39629,,,
acc002, 66.89, 52.49, 1076.42, -0.06, 0.00, -1.04,39640,,,
acc002, 67.38, 52.98, 1076.66, -0.61, -0.79, -0.92,39651,,,
acc002, 66.16, 51.76, 1083.01, -2.20, -2.69, -0.73,39662,,,
acc002, 68.36, 49.80, 1087.16, -5.19, -7.26, -0.61,39675,,,
acc002, 68.60, 46.39, 1076.17, -8.36, -12.76, -0.24,39686,,,
acc002, 70.80, 44.19, 1061.77, -8.24, -12.63, -0.31,39697,,,
acc002, 76.42, 42.24, 1058.11, -6.04, -10.19, -0.67,39708,,,
acc002, 72.75, 40.04, 1056.88, -3.54, -6.59, -0.67,39719,,,
acc002, 73.73, 42.24, 1060.30, -0.18, -1.46, -1.28,39731,,,
acc002, 78.37, 43.46, 1059.08, 0.92, 0.55, -1.28,39742,,,
acc002, 53.47, 29.30, 1049.07, 2.93, 3.30, -1.46,39753,,,
acc002, 73.73, 50.78, 1070.56, 6.16, 7.20, -2.14,39769,,,
acc002, 77.39, 51.51, 1075.93, 5.07, 6.41, -1.71,39780,,,
acc002, 73.97, 50.29, 1070.31, 3.48, 4.64, -1.16,39791,,,
acc002, 72.51, 47.85, 1070.07, 2.44, 3.72, -0.92,39802,,,
acc002, 70.80, 49.07, 1075.68, 1.65, 2.75, -0.73,39813,,,
acc002, 70.31, 47.36, 1069.09, 0.85, 1.71, -0.61,39824,,,
acc002, 68.12, 49.32, 1069.34, 0.67, 1.40, -0.55,39835,,,
acc002, 70.56, 51.03, 1066.65, 0.85, 1.59, -0.61,39846,,,
acc002, 70.31, 50.54, 1067.63, 1.22, 2.01, -0.67,39857,,,
acc002, 67.87, 53.22, 1069.09, 2.20, 3.48, -0.61,39870,,,
acc002, 68.12, 52.25, 1068.12, 2.26, 3.60, -0.55,39881,,,
acc002, 64.21, 54.69, 1069.82, 2.20, 3.42, -0.49,39892,,,
acc002, 66.89, 51.51, 1070.80, 2.01, 3.30, -0.67,39903,,,
acc002, 66.65, 55.66, 1065.43, 1.83, 2.56, -0.67,39915,,,
acc002, 69.58, 45.17, 1072.51, 1.77, 2.87, -0.61,39926,,,
acc002, 62.74, 42.48, 1074.22, 0.92, 1.71, -0.43,39937,,,
acc002, 70.07, 47.85, 1068.85, 0.31, 0.55, -0.37,39948,,,
acc002, 73.49, 49.80, 1070.07, -0.06, 0.00, -0.61,39959,,,
acc002, 80.57, 55.18, 1068.12, -0.24, -0.18, -0.37,39975,,,
acc002, 53.96, 58.84, 1072.27, -0.31, -0.31, -0.43,39986,,,
acc002, 63.48, 55.42, 1079.59, -0.61, -1.16, -0.49,39997,,,
acc002, 64.21, 45.41, 1088.62, -2.32, -4.39, -0.61,40008,,,
acc002, 59.08, 54.93, 1100.10, -5.92, -10.25, -0.92,40019,,,
acc002, 66.89, 41.75, 1087.16, -13.06, -20.69, -0.92,40030,,,
acc002, 89.36, 43.21, 1034.18, -12.82, -18.49, -0.85,40041,,,
acc002, 83.98, 47.61, 1062.74, -7.81, -10.62, -0.61,40052,,,
acc002, 81.54, 47.12, 1066.89, -5.19, -6.29, -0.24,40065,,,
acc002, 82.76, 40.28, 1056.40, -3.91, -4.76, -0.18,40076,,,
acc002, 79.83, 46.14, 1069.82, -2.01, -2.81, -0.49,40088,,,
acc002, 84.72, 42.72, 1078.13, -2.87, -3.85, -0.43,40099,,,
acc002, 82.76, 43.95, 1074.71, -3.36, -3.85, -0.31,40110,,,
acc002, 80.08, 38.09, 1064.94, -4.64, -5.00, -0.18,40121,,,
acc002, 84.23, 33.45, 1049.07, -3.30, -3.66, -0.43,40132,,,
acc002, 87.16, 40.53, 1068.12, -0.73, -1.34, -0.73,40143,,,
acc002, 85.94, 38.82, 1063.48, -0.43, -1.04, -0.67,40155,,,
acc002, 86.91, 44.68, 1080.32, 0.37, -0.73, -0.61,40171,,,
acc002, 85.21, 40.77, 1078.61, -0.18, -0.61, -0.49,40182,,,
acc002, 83.50, 39.31, 1072.51, -0.67, -1.53, -0.37,40193,,,
acc002, 84.47, 42.24, 1063.23, -0.73, -1.59, -0.43,40204,,,
acc002, 88.13, 37.11, 1067.38, -0.18, -0.43, -0.55,40215,,,
acc002, 84.23, 39.06, 1067.38, -0.06, 0.06, -0.55,40225,,,
acc002, 85.94, 38.33, 1070.31, 0.18, 0.18, -0.55,40236,,,
acc002, 81.79, 42.72, 1075.93, 0.43, 0.49, -0.67,40247,,,
acc002, 88.38, 37.60, 1066.89, 0.00, -0.06, -0.61,40258,,,
acc002, 83.01, 38.57, 1059.81, 0.73, 0.98, -0.79,40272,,,
acc002, 81.30, 40.28, 1069.58, 1.46, 1.77, -1.10,40283,,,
acc002, 88.62, 38.09, 1073.97, 2.01, 1.95, -1.40,40294,,,
acc002, 85.94, 39.55, 1065.92, 1.28, 1.46, -0.98,40305,,,
acc002, 88.13, 42.48, 1071.53, 0.98, 1.28, -0.85,40316,,,
acc002, 84.47, 41.50, 1071.78, 0.67, 0.98, -0.79,40327,,,
acc002, 90.58, 41.50, 1071.78, 0.12, 0.49, -0.79,40338,,,
acc002, 90.09, 39.06, 1059.33, -0.24, -0.12, -0.43,40350,,,
acc002, 83.25, 36.87, 1067.38, -0.67, -0.55, -0.43,40365,,,
acc002, 83.98, 37.35, 1069.82, -1.16, -1.34, -0.43,40376,,,
acc002, 86.18, 41.75, 1075.44, -1.89, -2.75, -0.43,40386,,,
acc002, 85.69, 39.79, 1074.46, -3.23, -4.76, -0.12,40397,,,
acc002, 88.13, 40.28, 1062.74, -3.66, -5.43, -0.12,40408,,,
acc002, 87.65, 36.87, 1062.26, -2.75, -3.72, -0.24,40419,,,
acc002, 87.65, 38.33, 1067.38, -1.04, -1.22, -0.37,40430,,,
acc002, 91.80, 37.11, 1066.41, -0.55, -0.67, -0.43,40441,,,
acc002, 87.16, 39.06, 1068.36, -0.37, -0.43, -0.49,40452,,,
acc002, 87.40, 39.31, 1073.24, -0.18, -0.18, -0.55,40465,,,
acc002, 89.84, 37.11, 1065.92, -0.12, -0.24, -0.43,40476,,,
acc002, 87.65, 39.06, 1066.65, -0.24, -0.18, -0.43,40487,,,
acc002, 88.87, 39.79, 1068.12, -0.24, -0.31, -0.55,40498,,,
acc002, 86.67, 40.53, 1068.60, -0.18, -0.31, -0.43,40510,,,
acc002, 88.13, 36.87, 1068.12, -0.18, -0.31, -0.49,40521,,,
acc002, 87.89, 37.84, 1066.89, -0.12, -0.06, -0.49,40532,,,
acc002, 88.87, 39.06, 1065.43, -0.24, -0.12, -0.49,40543,,,
acc002, 89.60, 37.84, 1067.14, -0.24, -0.18, -0.49,40556,,,
acc002, 89.84, 39.31, 1069.58, -0.18, 0.00, -0.55,40568,,,
acc002, 87.40, 36.38, 1068.85, -0.24, -0.06, -0.55,40582,,,
acc002, 88.38, 38.82, 1067.14, -0.24, -0.06, -0.49,40593,,,
acc002, 88.62, 38.09, 1071.78, -0.12, -0.12, -0.49,40604,,,
acc002, 89.60, 39.79, 1071.78, -0.06, -0.06, -0.55,40615,,,
acc002, 88.87, 38.82, 1066.16, -0.12, -0.06, -0.55,40625,,,
acc002, 90.33, 40.04, 1068.60, -0.12, -0.12, -0.49,40636,,,
acc002, 88.13, 40.28, 1069.09, -0.18, -0.06, -0.49,40647,,,
acc002, 89.84, 38.33, 1070.31, -0.18, -0.06, -0.43,40660,,,
acc002, 89.36, 37.35, 1069.58, -0.24, -0.06, -0.43,40672,,,
acc002, 87.16, 39.55, 1071.29, -0.12, -0.06, -0.55,40683,,,
acc002, 91.06, 37.35, 1069.34, -0.12, -0.06, -0.55,40694,,,
acc002, 87.16, 37.35, 1071.04, -0.12, -0.06, -0.55,40705,,,
acc002, 88.87, 38.09, 1067.63, -0.24, -0.06, -0.49,40716,,,
acc002, 90.33, 37.11, 1068.60, -0.24, 0.00, -0.55,40727,,,
acc002, 88.87, 37.11, 1068.85, -0.18, -0.06, -0.49,40738,,,
acc002, 89.36, 38.82, 1066.89, -0.18, 0.06, -0.49,40749,,,
acc002, 88.38, 39.55, 1070.31, -0.18, -0.06, -0.43,40763,,,
acc002, 89.60, 39.31, 1071.04, -0.18, -0.06, -0.55,40774,,,
acc002, 87.16, 37.60, 1067.38, -0.18, 0.00, -0.55,40788,,,
acc002, 88.13, 36.13, 1069.82, -0.06, 0.00, -0.49,40799,,,
acc002, 89.60, 38.82, 1071.29, -0.18, 0.00, -0.43,40810,,,
acc002, 89.60, 38.33, 1065.19, -0.06, 0.00, -0.55,40821,,,
acc002, 90.09, 36.62, 1070.80, -0.12, 0.00, -0.55,40832,,,
acc002, 87.40, 38.33, 1068.60, -0.06, 0.00, -0.49,40843,,,
acc002, 89.84, 40.04, 1069.82, -0.12, 0.00, -0.49,40856,,,
acc002, 88.62, 37.35, 1069.34, -0.18, -0.06, -0.43,40867,,,
acc002, 88.62, 36.62, 1066.16, -0.12, -0.06, -0.49,40878,,,
acc002, 90.58, 39.55, 1071.04, -0.12, 0.00, -0.43,40889,,,
acc002, 87.89, 40.28, 1070.31, -0.12, 0.00, -0.49,40900,,,
acc002, 88.87, 39.06, 1067.63, -0.12, 0.06, -0.55,40911,,,
acc002, 90.09, 40.77, 1072.27, -0.18, 0.06, -0.43,40922,,,
acc002, 86.67, 38.82, 1067.38, -0.18, 0.06, -0.49,40933,,,
acc002, 87.89, 40.04, 1070.56, -0.18, 0.00, -0.49,40944,,,
acc002, 87.40, 37.84, 1069.09, -0.18, 0.00, -0.55,40958,,,
acc002, 88.38, 38.33, 1067.14, -0.12, 0.00, -0.55,40969,,,
acc002, 88.87, 39.31, 1070.56, -0.12, -0.06, -0.55,40980,,,
acc002, 87.65, 37.35, 1068.60, -0.24, 0.06, -0.55,40994,,,
acc002, 89.11, 39.31, 1068.12, -0.18, 0.06, -0.49,41005,,,
acc002, 86.43, 38.33, 1068.85, -0.06, 0.00, -0.43,41016,,,
acc002, 88.87, 37.60, 1068.85, -0.06, -0.06, -0.49,41027,,,
acc002, 89.60, 40.53, 1069.82, -0.18, -0.06, -0.61,41038,,,
acc002, 89.60, 38.82, 1069.34, -0.18, 0.06, -0.61,41051,,,
acc002, 89.60, 38.82, 1071.53, -0.12, 0.06, -0.55,41062,,,
acc002, 89.60, 37.84, 1068.36, -0.12, 0.06, -0.49,41073,,,
acc002, 89.36, 38.82, 1067.14, -0.18, 0.00, -0.49,41084,,,
acc002, 89.60, 37.84, 1070.56, -0.18, -0.06, -0.61,41095,,,
acc002, 91.06, 39.31, 1071.04, -0.12, 0.00, -0.49,41106,,,
acc002, 87.40, 37.84, 1064.94, -0.12, 0.00, -0.43,41117,,,
acc002, 86.67, 37.60, 1071.04, -0.24, 0.06, -0.61,41128,,,
acc002, 90.09, 37.35, 1067.63, -0.12, -0.06, -0.49,41139,,,
acc002, 89.11, 39.06, 1068.85, -0.12, 0.06, -0.55,41153,,,
acc002, 87.89, 39.31, 1066.16, -0.24, 0.00, -0.43,41164,,,
acc002, 89.84, 38.33, 1067.14, -0.12, -0.06, -0.55,41175,,,
acc002, 90.33, 39.31, 1064.94, -0.24, 0.06, -0.49,41186,,,
acc002, 89.36, 38.09, 1069.09, -0.24, 0.00, -0.43,41200,,,
acc002, 88.62, 36.62, 1068.85, -0.18, 0.06, -0.55,41211,,,
acc002, 91.06, 37.84, 1068.60, -0.12, 0.06, -0.55,41222,,,
acc002, 89.36, 38.09, 1069.82, -0.12, 0.00, -0.61,41233,,,
acc002, 90.09, 39.31, 1068.12, -0.18, -0.06, -0.61,41244,,,
acc002, 89.84, 40.53, 1069.09, -0.12, 0.06, -0.61,41257,,,
acc002, 89.60, 37.35, 1071.29, -0.24, -0.06, -0.55,41268,,,
acc002, 88.13, 38.09, 1068.60, -0.24, 0.00, -0.55,41279,,,
acc002, 88.13, 38.57, 1068.36, -0.18, 0.18, -0.55,41290,,,
acc002, 87.16, 40.28, 1071.29, -0.24, -0.06, -0.49,41301,,,
acc002, 88.62, 37.60, 1067.87, -0.12, 0.00, -0.61,41312,,,
acc002, 88.13, 39.31, 1067.87, -0.18, 0.00, -0.61,41323,,,
acc002, 87.40, 38.82, 1069.58, -0.12, 0.06, -0.43,41334,,,
acc002, 88.13, 38.57, 1067.63, -0.18, 0.00, -0.43,41348,,,
acc002, 90.09, 36.87, 1069.34, -0.18, 0.06, -0.43,41359,,,
acc002, 89.60, 38.09, 1070.80, -0.24, 0.00, -0.49,41370,,,
acc002, 89.36, 37.84, 1067.38, -0.12, -0.06, -0.49,41381,,,
acc002, 91.06, 39.31, 1071.78, -0.24, 0.00, -0.49,41392,,,
acc002, 89.36, 38.82, 1064.70, -0.18, -0.06, -0.43,41407,,,
acc002, 90.33, 38.82, 1066.65, -0.24, 0.00, -0.55,41417,,,
acc002, 89.36, 37.11, 1072.02, -0.12, 0.00, -0.55,41428,,,
acc002, 87.89, 38.09, 1071.53, -0.18, -0.06, -0.49,41440,,,
acc002, 89.60, 37.84, 1065.92, -0.18, -0.06, -0.49,41453,,,
acc002, 91.80, 37.35, 1071.04, -0.18, -0.06, -0.55,41464,,,
acc002, 89.84, 38.33, 1067.14, -0.18, 0.06, -0.55,41475,,,
acc002, 88.87, 37.84, 1068.36, -0.06, 0.00, -0.49,41486,,,
acc002, 89.11, 37.84, 1065.92, -0.12, -0.06, -0.49,41497,,,
acc002, 90.58, 40.28, 1068.36, -0.18, 0.06, -0.49,41508,,,
acc002, 89.11, 38.82, 1067.63, -0.12, 0.00, -0.55,41519,,,
acc002, 90.09, 37.35, 1066.89, -0.12, 0.06, -0.49,41530,,,
acc002, 89.60, 40.28, 1066.41, -0.12, 0.00, -0.61,41541,,,
acc002, 88.87, 38.33, 1066.89, -0.06, 0.06, -0.49,41554,,,
acc002, 90.09, 37.35, 1070.31, -0.18, 0.06, -0.49,41565,,,
acc002, 90.09, 37.35, 1070.07, -0.12, 0.12, -0.43,41577,,,
acc002, 89.11, 38.33, 1068.85, -0.18, 0.12, -0.55,41588,,,
acc002, 89.11, 38.82, 1071.04, -0.18, 0.06, -0.55,41599,,,
acc002, 89.60, 38.09, 1070.31, -0.18, 0.06, -0.55,41613,,,
acc002, 89.60, 39.06, 1067.87, -0.12, -0.06, -0.49,41624,,,
acc002, 88.87, 37.60, 1068.85, -0.12, 0.06, -0.55,41635,,,
acc002, 89.84, 37.11, 1067.87, -0.18, 0.00, -0.43,41648,,,
acc002, 88.62, 39.31, 1066.89, -0.18, -0.06, -0.49,41659,,,
acc002, 87.89, 37.84, 1069.09, -0.18, 0.00, -0.49,41670,,,
acc002, 90.58, 39.06, 1068.60, -0.18, 0.00, -0.43,41681,,,
acc002, 91.06, 38.09, 1069.58, -0.18, 0.06, -0.49,41692,,,
acc002, 89.36, 39.06, 1067.87, -0.18, 0.06, -0.49,41703,,,
acc002, 89.60, 40.04, 1069.82, -0.18, -0.06, -0.61,41714,,,
acc002, 90.58, 38.82, 1067.87, -0.18, 0.00, -0.55,41725,,,
acc002, 90.09, 39.31, 1065.92, -0.18, 0.06, -0.61,41736,,,
acc002, 89.36, 40.77, 1066.16, -0.18, 0.06, -0.67,41749,,,
acc002, 89.11, 38.57, 1068.85, -0.18, 0.12, -0.55,41760,,,
acc002, 90.58, 38.82, 1067.63, -0.18, 0.00, -0.43,41771,,,
acc002, 89.11, 37.60, 1066.89, -0.18, 0.06, -0.49,41783,,,
acc002, 89.60, 36.38, 1068.85, -0.12, 0.12, -0.55,41794,,,
acc002, 89.36, 36.38, 1065.19, -0.12, 0.06, -0.55,41805,,,
acc002, 88.87, 37.84, 1067.14, -0.18, 0.00, -0.55,41819,,,
acc002, 88.38, 36.87, 1070.80, -0.06, 0.00, -0.49,41830,,,
acc002, 87.89, 37.60, 1069.34, -0.18, 0.12, -0.49,41841,,,
acc002, 90.33, 37.60, 1068.12, -0.18, 0.00, -0.49,41854,,,
acc002, 90.09, 39.55, 1068.12, -0.24, 0.06, -0.43,41865,,,
acc002, 88.62, 41.50, 1069.58, -0.06, 0.06, -0.49,41876,,,
acc002, 88.38, 37.60, 1068.36, -0.06, 0.00, -0.55,41887,,,
acc002, 90.33, 38.09, 1067.38, -0.18, 0.00, -0.49,41898,,,
acc002, 89.84, 38.82, 1066.89, -0.18, 0.06, -0.43,41909,,,
acc002, 88.38, 38.09, 1065.92, -0.24, 0.00, -0.55,41920,,,
acc002, 90.82, 37.84, 1063.96, -0.18, 0.00, -0.43,41931,,,
acc002, 91.80, 36.62, 1067.87, -0.12, -0.06, -0.49,41944,,,
acc002, 90.82, 39.06, 1072.27, -0.18, 0.06, -0.55,41955,,,
acc002, 90.58, 37.84, 1067.38, -0.06, 0.00, -0.49,41966,,,
acc002, 88.13, 39.31, 1067.87, -0.24, 0.00, -0.49,41978,,,
acc002, 90.82, 37.84, 1065.43, -0.12, 0.00, -0.55,41989,,,
acc002, 91.06, 38.82, 1067.38, -0.12, 0.00, -0.49,42000,,,
acc002, 95.21, 38.82, 1064.94, -0.12, 0.06, -0.49,42011,,,
acc002, 90.58, 44.68, 1069.82, -0.06, -0.24, -0.55,42025,,,
acc002, 93.51, 37.60, 1067.38, -0.06, -0.18, -0.49,42037,,,
acc002, 95.95, 36.13, 1063.23, -0.49, -0.37, -0.55,42050,,,
acc002, 76.90, 33.20, 1064.70, -0.18, -0.12, -0.43,42060,,,
acc002, 101.32, 41.75, 1065.67, -0.67, -0.85, -0.55,42071,,,
acc002, 83.74, 48.34, 1081.05, -0.31, -0.43, -0.55,42082,,,
acc002, 85.69, 45.90, 1081.54, -1.28, -2.20, -0.55,42093,,,
acc002, 106.93, 17.58, 1022.95, -1.46, -3.05, -0.12,42104,,,
acc002, 93.99, 52.49, 1078.86, 0.12, 0.49, -0.49,42115,,,
acc002, 96.44, 32.96, 1067.14, 0.00, -0.12, -0.43,42126,,,
acc002, 89.60, 40.04, 1068.60, 0.12, 0.31, -0.49,42140,,,
acc002, 93.51, 33.20, 1067.38, -0.18, -0.18, -0.37,42151,,,
acc002, 89.36, 39.79, 1070.56, -0.61, -0.98, -0.55,42162,,,
acc002, 88.62, 41.26, 1073.00, -1.16, -0.98, -0.79,42173,,,
acc002, 78.61, 37.35, 1084.96, -2.01, -2.08, -0.73,42184,,,
acc002, 54.20, 29.79, 1123.05, -5.43, -7.14, -1.28,42195,,,
acc002, 43.46, -33.94, 1150.88, -8.06, -13.85, -1.89,42207,,,
acc002, 27.83, -107.42, 1138.67, -6.41, -14.04, -6.47,42218,,,
acc002, 77.88, -123.29, 1138.67, -12.21, -17.52, -10.99,42232,,,
acc002, 104.25, -91.06, 1262.94, -16.78, -10.38, -11.17,42245,,,
acc002, 85.69, -94.97, 1283.94, -26.79, -7.26, -9.09,42256,,,
acc002, 88.87, -110.84, 1357.67, -33.26, -4.52, -6.35,42267,,,
acc002, 95.21, -125.73, 1312.99, -39.00, -4.27, -0.24,42278,,,
acc002, 110.84, -144.78, 1284.18, -36.56, 0.00, 4.76,42289,,,
acc002, 134.77, -161.62, 1273.68, -28.50, 7.69, 9.46,42300,,,
acc002, 140.62, -178.22, 1281.49, -16.97, 16.30, 13.24,42311,,,
acc002, 121.58, -176.27, 1300.29, -3.42, 24.29, 15.44,42322,,,
acc002, 90.33, -149.66, 1332.03, 16.97, 31.01, 15.26,42335,,,
acc002, 72.02, -120.85, 1361.33, 28.14, 31.31, 13.73,42346,,,
acc002, 51.27, -73.49, 1390.87, 37.78, 30.03, 10.93,42357,,,
acc002, 52.98, -36.87, 1387.45, 40.65, 29.17, 8.91,42368,,,
acc002, 63.48, -0.73, 1396.24, 41.56, 27.04, 7.32,42379,,,
acc002, 65.19, 30.76, 1401.86, 40.04, 24.60, 6.16,42390,,,
acc002, 71.29, 66.65, 1370.61, 34.55, 20.81, 4.39,42402,,,
acc002, 75.20, 68.60, 1363.04, 30.58, 17.52, 3.23,42413,,,
acc002, 74.71, 60.06, 1389.65, 26.00, 14.40, 2.26,42424,,,
acc002, 63.23, 54.69, 1437.26, 16.42, 8.91, 0.18,42440,,,
acc002, 50.29, 48.34, 1449.95, 8.30, 6.23, -1.65,42451,,,
acc002, 23.68, 31.01, 1465.58, -4.09, 3.66, -6.29,42462,,,
acc002, 22.46, 22.46, 1478.52, -11.54, 3.36, -10.31,42473,,,
acc002, 21.24, 37.35, 1462.16, -17.15, 2.81, -14.40,42484,,,
acc002, 20.51, 56.15, 1420.65, -19.23, 2.56, -17.46,42495,,,
acc002, 26.37, 66.89, 1375.49, -17.76, 2.75, -19.78,42506,,,
acc002, 31.25, 87.40, 1326.17, -10.56, 4.21, -22.46,42517,,,
acc002, 28.81, 94.73, 1337.40, -5.74, 6.41, -24.41,42530,,,
acc002, 14.65, 97.41, 1342.53, -2.99, 10.62, -26.49,42541,,,
acc002, -13.43, 115.48, 1336.91, -0.06, 15.08, -30.64,42552,,,
acc002, -21.97, 134.77, 1335.94, 2.26, 15.99, -33.20,42563,,,
acc002, -18.07, 148.19, 1320.56, 4.27, 15.63, -35.16,42574,,,
acc002, -21.48, 152.83, 1286.13, 6.65, 14.53, -36.80,42586,,,
acc002, -14.65, 158.69, 1244.38, 9.64, 14.77, -39.06,42597,,,
acc002, -16.11, 167.97, 1220.95, 11.41, 16.30, -40.22,42608,,,
acc002, -42.97, 165.28, 1203.13, 14.10, 17.21, -42.36,42621,,,
acc002, -35.40, 159.91, 1192.63, 15.20, 17.27, -43.33,42636,,,
acc002, -13.43, 134.03, 1204.35, 17.33, 15.20, -41.75,42646,,,
acc002, 3.17, 112.30, 1222.17, 16.60, 15.08, -39.12,42657,,,
acc002, 9.28, 84.23, 1224.37, 13.79, 16.05, -36.13,42668,,,
acc002, -0.24, 54.44, 1217.29, 10.74, 17.27, -33.20,42679,,,
acc002, -18.07, 35.89, 1199.71, 8.06, 19.47, -30.40,42690,,,
acc002, -21.48, 26.61, 1178.96, 7.02, 21.18, -27.59,42701,,,
acc002, -6.10, 10.50, 1192.38, 7.14, 20.08, -22.34,42712,,,
acc002, -1.71, 4.39, 1180.42, 7.02, 18.31, -17.88,42725,,,
acc002, 10.01, 1.46, 1158.94, 6.84, 15.63, -9.64,42736,,,
acc002, 6.84, -3.91, 1146.24, 6.59, 13.61, -2.75,42747,,,
acc002, 3.17, -5.62, 1126.95, 6.77, 11.96, 4.70,42759,,,
acc002, -12.21, -0.73, 1114.26, 7.02, 10.62, 11.78,42770,,,
acc002, -39.79, -7.32, 1128.91, 6.10, 8.97, 17.46,42781,,,
acc002, -73.24, -6.84, 1152.34, 0.55, 7.93, 22.34,42792,,,
acc002, -83.01, -3.91, 1158.45, -4.76, 6.65, 24.72,42803,,,
acc002, -101.56, -6.59, 1117.92, -10.50, 3.30, 28.20,42816,,,
acc002, -93.75, 7.08, 1059.81, -9.77, -0.55, 31.19,42828,,,
acc002, -101.32, 10.99, 993.65, -2.32, -8.36, 36.93,42842,,,
acc002, -111.33, 5.62, 972.90, 3.91, -12.21, 39.37,42853,,,
acc002, -114.75, -4.64, 959.96, 10.62, -15.93, 40.34,42864,,,
acc002, -114.01, -21.00, 960.69, 16.91, -19.35, 39.92,42875,,,
acc002, -126.46, -50.54, 978.76, 22.09, -21.97, 38.64,42886,,,
acc002, -140.14, -94.48, 1016.85, 27.16, -28.93, 34.30,42897,,,
acc002, -123.29, -117.43, 1010.50, 29.85, -33.81, 31.98,42908,,,
acc002, -95.21, -122.56, 989.01, 32.35, -38.02, 30.64,42921,,,
acc002, -84.23, -70.07, 931.15, 34.48, -39.67, 29.36,42932,,,
acc002, -72.75, -39.06, 922.85, 33.81, -42.11, 28.87,42943,,,
acc002, -68.36, -14.89, 910.64, 31.98, -42.36, 28.44,42954,,,
acc002, -55.42, -6.84, 903.81, 28.26, -42.30, 27.71,42965,,,
acc002, -34.42, -8.06, 891.60, 22.83, -41.75, 26.37,42976,,,
acc002, -37.35, -18.80, 883.54, 19.78, -41.81, 26.00,42987,,,
acc002, -54.69, -39.06, 888.18, 17.88, -43.09, 25.33,42998,,,
acc002, -61.04, -67.14, 868.65, 15.87, -45.84, 23.80,43012,,,
acc002, -63.23, -97.90, 771.48, 16.78, -44.13, 22.28,43023,,,
acc002, -75.68, -114.50, 675.05, 20.87, -36.01, 18.98,43034,,,
acc002, -77.88, -135.50, 656.25, 27.65, -21.85, 12.02,43048,,,
acc002, -77.15, -142.82, 706.05, 33.02, -10.25, 7.87,43059,,,
acc002, -77.88, -142.82, 782.47, 37.41, -1.77, 5.43,43070,,,
acc002, -68.85, -116.94, 853.27, 40.34, 4.70, 3.60,43081,,,
acc002, -83.01, -100.59, 888.18, 38.51, 7.08, 3.36,43092,,,
acc002, -96.19, -92.04, 913.33, 34.42, 8.85, 3.54,43105,,,
acc002, -91.55, -81.30, 922.85, 26.55, 9.09, 4.33,43116,,,
acc002, -83.50, -68.36, 919.43, 19.90, 10.50, 5.62,43127,,,
acc002, -58.11, -44.19, 889.65, 13.24, 13.24, 7.75,43138,,,
acc002, -22.46, -18.07, 854.98, 8.00, 16.30, 11.11,43149,,,
acc002, 0.00, 11.96, 817.87, 4.27, 19.71, 15.69,43160,,,
acc002, -2.44, 22.71, 811.52, 1.59, 23.44, 23.13,43171,,,
acc002, -0.49, 26.61, 806.15, 1.40, 23.74, 28.32,43182,,,
acc002, 3.91, 30.27, 802.49, 1.40, 23.38, 33.63,43193,,,
acc002, 19.29, 63.96, 788.33, 0.06, 22.71, 41.75,43206,,,
acc002, 19.29, 75.44, 783.20, -3.23, 22.34, 47.18,43218,,,
acc002, 23.44, 87.16, 780.03, -9.16, 23.80, 52.67,43229,,,
acc002, 26.12, 104.00, 762.94, -16.11, 26.79, 57.43,43240,,,
acc002, -132.81, 193.60, 1058.84, -28.44, 21.12, 63.23,43254,,,
acc002, -58.35, 273.68, 951.90, -40.22, 2.01, 76.54,43265,,,
acc002, -34.67, 231.20, 863.53, -62.81, -7.14, 92.53,43276,,,
acc002, -51.51, 189.94, 845.21, -75.38, -12.94, 97.90,43287,,,
acc002, -57.62, 156.01, 833.50, -85.02, -17.46, 102.72,43300,,,
acc002, -36.38, 112.55, 815.92, -93.57, -22.83, 109.92,43311,,,
acc002, -46.39, 82.52, 798.34, -94.73, -25.09, 113.89,43322,,,
acc002, -49.07, 64.70, 826.17, -92.83, -27.89, 116.39,43333,,,
acc002, -41.26, 74.46, 875.00, -88.81, -30.21, 118.41,43344,,,
acc002, -40.28, 83.25, 934.08, -86.12, -33.63, 120.42,43355,,,
acc002, -56.88, 92.53, 988.04, -83.07, -41.32, 124.69,43366,,,
acc002, -77.64, 101.32, 992.68, -82.52, -46.94, 127.56,43377,,,
acc002, -66.16, 112.55, 956.79, -83.44, -52.06, 131.65,43390,,,
acc002, -43.95, 108.15, 941.89, -83.44, -51.94, 134.70,43402,,,
acc002, -29.05, 66.89, 958.74, -82.40, -50.29, 137.02,43413,,,
acc002, -3.91, 15.14, 979.74, -78.86, -47.79, 137.70,43424,,,
acc002, 27.34, -28.32, 988.53, -71.53, -45.10, 137.15,43435,,,
acc002, 60.06, -57.62, 990.97, -55.91, -39.79, 135.68,43446,,,
acc002, 75.93, -58.84, 1028.08, -40.47, -32.71, 134.28,43461,,,
acc002, 83.25, -61.28, 1063.23, -31.13, -28.81, 134.09,43471,,,
acc002, 95.46, -64.21, 1068.60, -22.22, -24.72, 134.28,43484,,,
acc002, 93.75, -57.13, 1036.62, -8.24, -18.98, 134.16,43495,,,
acc002, 79.35, -48.83, 1013.92, 0.49, -15.69, 133.06,43506,,,
acc002, 53.47, -42.72, 1002.44, 7.93, -12.94, 131.84,43517,,,
acc002, 26.12, -34.42, 990.48, 14.34, -11.29, 130.19,43528,,,
acc002, 15.87, -24.41, 982.42, 21.06, -11.35, 128.85,43539,,,
acc002, 19.29, -6.10, 974.37, 26.98, -11.05, 128.91,43550,,,
acc002, 31.49, 1.22, 999.51, 32.71, -10.13, 130.86,43561,,,
acc002, 45.17, -10.25, 1008.06, 34.73, -8.30, 131.90,43572,,,
acc002, 62.50, -29.54, 1001.46, 39.31, -4.27, 130.68,43594,,,
acc002, 65.67, -28.81, 1014.89, 42.24, 1.65, 127.20,43610,,,
acc002, 64.70, -19.78, 1035.64, 42.97, 4.15, 125.73,43624,,,
acc002, 65.43, -22.95, 1050.29, 43.58, 5.86, 123.66,43639,,,
acc002, 67.63, -28.08, 1055.18, 44.19, 8.91, 121.15,43653,,,
acc002, 58.11, -32.71, 1078.86, 44.01, 13.79, 115.84,43670,,,
acc002, 57.13, -38.82, 1099.61, 42.85, 16.72, 112.85,43684,,,
acc002, 54.93, -52.49, 1135.01, 41.08, 21.18, 107.79,43698,,,
acc002, 40.04, -68.36, 1162.35, 39.31, 24.35, 101.75,43714,,,
acc002, 38.82, -73.97, 1143.31, 39.12, 25.33, 94.18,43728,,,
acc002, 48.83, -63.23, 1144.78, 40.65, 26.37, 86.12,43742,,,
acc002, 65.92, -70.80, 1207.03, 39.31, 28.99, 78.67,43756,,,
acc002, 88.62, -90.82, 1276.61, 38.64, 31.25, 73.24,43770,,,
acc002, 87.40, -105.71, 1291.50, 38.76, 31.86, 70.13,43785,,,
acc002, 80.81, -116.46, 1285.89, 37.72, 32.04, 64.70,43799,,,
acc002, 96.68, -95.95, 1277.59, 37.11, 29.97, 58.84,43813,,,
acc002, 120.12, -58.35, 1266.60, 35.52, 26.92, 54.50,43829,,,
acc002, 126.71, -34.42, 1248.05, 31.98, 23.25, 51.09,43843,,,
acc002, 135.50, -27.59, 1230.47, 25.39, 22.40, 47.24,43858,,,
acc002, 141.11, -28.32, 1228.27, 18.31, 22.89, 43.40,43872,,,
acc002, 129.15, -36.13, 1234.13, 11.84, 22.77, 39.18,43886,,,
acc002, 145.02, -28.56, 1214.11, 7.45, 20.26, 35.58,43900,,,
acc002, 156.25, -18.07, 1191.89, 5.19, 16.60, 33.57,43915,,,
acc002, 164.55, -0.49, 1143.55, 2.93, 13.49, 32.29,43932,,,
acc002, 157.71, 12.21, 1099.37, -0.12, 11.29, 31.92,43946,,,
acc002, 160.64, 30.52, 1047.12, -2.99, 11.23, 32.71,43962,,,
acc002, 153.32, 43.21, 1005.62, -3.97, 11.54, 33.94,43976,,,
acc002, 132.57, 38.82, 974.37, -3.97, 11.60, 34.73,43990,,,
acc002, 120.61, 40.53, 956.05, -3.72, 11.60, 34.61,44004,,,
acc002, 109.62, 56.88, 920.17, -2.44, 11.29, 34.06,44018,,,
acc002, 105.71, 78.12, 881.84, -1.04, 10.68, 33.69,44032,,,
acc002, 100.59, 93.02, 844.97, 0.98, 10.01, 33.51,44046,,,
acc002, 91.55, 112.55, 819.82, 3.78, 8.67, 33.69,44060,,,
acc002, 78.61, 110.60, 828.37, 6.41, 6.35, 34.55,44077,,,
acc002, 71.78, 104.49, 859.86, 8.00, 2.81, 35.28,44091,,,
acc002, 73.49, 101.32, 874.02, 7.57, -0.43, 35.83,44105,,,
acc002, 82.03, 103.27, 875.98, 6.84, -1.46, 36.19,44119,,,
acc002, 83.25, 108.40, 877.69, 6.53, -2.87, 36.50,44133,,,
acc002, 65.19, 108.64, 894.04, 7.02, -5.68, 36.44,44148,,,
acc002, 43.95, 112.55, 912.11, 6.10, -8.54, 35.46,44162,,,
acc002, 29.30, 107.91, 928.71, 3.97, -11.35, 33.94,44176,,,
acc002, 35.89, 111.57, 938.48, 1.46, -12.08, 32.53,44193,,,
acc002, 45.17, 110.35, 939.94, -0.37, -10.44, 30.58,44209,,,
acc002, 43.21, 107.67, 951.90, -0.73, -9.03, 29.60,44223,,,
acc002, 30.52, 98.39, 979.49, -1.40, -6.47, 28.38,44237,,,
acc002, 16.11, 93.02, 1021.24, -2.75, -5.31, 26.61,44251,,,
acc002, 19.78, 92.04, 1040.28, -4.33, -4.09, 24.90,44265,,,
acc002, 33.45, 84.96, 1056.88, -4.52, -1.77, 23.99,44279,,,
acc002, 34.18, 82.76, 1080.32, -3.91, 0.31, 24.17,44293,,,
acc002, 12.21, 86.67, 1108.64, -1.71, 2.56, 24.60,44308,,,
acc002, -11.96, 97.66, 1128.91, -1.40, 3.05, 24.23,44322,,,
acc002, 2.69, 89.36, 1169.92, -3.78, 3.66, 23.56,44338,,,
acc002, 49.07, 42.97, 1212.16, -5.43, 4.52, 24.35,44352,,,
acc002, 86.91, -7.81, 1228.03, -2.69, 5.25, 24.54,44366,,,
acc002, 90.33, -7.32, 1221.19, 2.44, 5.80, 23.80,44381,,,
acc002, 76.42, 33.45, 1237.55, 4.33, 4.88, 24.11,44395,,,
acc002, 69.34, 43.70, 1254.88, 1.59, 2.26, 25.39,44409,,,
acc002, 66.16, 32.71, 1253.66, -1.10, 0.06, 26.49,44423,,,
acc002, 63.72, 21.97, 1247.56, -4.76, -3.05, 28.26,44438,,,
acc002, 47.61, 5.86, 1230.22, -8.36, -6.96, 30.33,44457,,,
acc002, 41.26, 8.06, 1193.60, -9.64, -8.18, 29.91,44471,,,
acc002, 41.02, 15.87, 1154.30, -9.95, -7.14, 28.75,44485,,,
acc002, 35.40, 27.34, 1101.56, -8.48, -4.64, 27.59,44499,,,
acc002, 33.69, 42.72, 1069.82, -6.71, -2.81, 26.79,44513,,,
acc002, 29.54, 65.92, 1032.96, -3.91, -0.49, 25.70,44527,,,
acc002, 30.27, 87.16, 1007.57, -1.04, -0.12, 24.48,44541,,,
acc002, 27.34, 108.89, 972.41, 1.77, -1.95, 22.83,44555,,,
acc002, 25.63, 125.24, 948.49, 3.42, -4.46, 20.45,44569,,,
acc002, 26.61, 134.77, 926.51, 3.60, -6.41, 17.82,44585,,,
acc002, 24.17, 145.75, 903.08, 3.11, -7.57, 15.32,44599,,,
acc002, 24.66, 156.74, 886.47, 2.38, -7.63, 13.67,44614,,,
acc002, 30.27, 168.70, 856.20, 1.71, -6.84, 11.84,44628,,,
acc002, 34.91, 173.83, 849.61, 1.89, -6.16, 10.38,44642,,,
acc002, 42.48, 167.72, 861.08, 2.56, -5.37, 9.03,44656,,,
acc002, 38.33, 161.38, 882.57, 3.11, -3.97, 7.93,44671,,,
acc002, 32.23, 148.19, 906.49, 2.81, -2.44, 6.10,44685,,,
acc002, 21.24, 140.14, 927.25, 1.83, -1.22, 3.60,44699,,,
acc002, 10.74, 139.40, 947.75, 1.34, -0.73, 0.12,44718,,,
acc002, 17.82, 143.80, 972.17, 1.40, -1.10, -3.66,44732,,,
acc002, 26.37, 135.99, 1008.79, 2.08, -1.89, -7.02,44746,,,
acc002, 39.06, 113.04, 1048.10, 3.91, -3.30, -11.35,44760,,,
acc002, 41.02, 105.96, 1065.67, 7.57, -5.25, -16.60,44774,,,
acc002, 45.65, 102.54, 1077.39, 10.44, -6.35, -20.26,44788,,,
acc002, 60.30, 103.27, 1106.93, 13.24, -6.59, -25.39,44802,,,
acc002, 95.70, 104.00, 1144.53, 14.04, -3.78, -30.03,44817,,,
acc002, 109.86, 133.06, 1166.02, 13.67, -0.92, -34.06,44833,,,
acc002, 124.76, 145.75, 1204.35, 10.80, -0.55, -37.48,44847,,,
acc002, 158.69, 100.10, 1237.55, 6.90, -2.08, -41.02,44861,,,
acc002, 215.58, 40.04, 1280.27, 4.94, -2.14, -44.13,44875,,,
acc002, 245.85, -3.91, 1324.46, 6.65, -0.98, -45.78,44889,,,
acc002, 235.35, -6.10, 1333.50, 10.25, -0.67, -47.79,44904,,,
acc002, 236.82, 13.67, 1317.38, 10.74, -1.04, -49.87,44918,,,
acc002, 246.58, 43.95, 1296.88, 9.22, -0.31, -53.22,44932,,,
acc002, 259.52, 43.95, 1257.08, 5.00, 4.46, -56.58,44949,,,
acc002, 248.29, 41.50, 1236.57, 2.08, 8.85, -58.35,44966,,,
acc002, 234.86, 31.74, 1223.39, -1.16, 12.63, -59.88,44980,,,
acc002, 216.80, 26.12, 1203.13, -3.42, 14.47, -61.46,44994,,,
acc002, 200.93, 30.27, 1178.47, -4.39, 14.53, -62.56,45008,,,
acc002, 168.95, 49.56, 1127.20, -5.31, 13.12, -63.90,45022,,,
acc002, 141.60, 68.36, 1070.56, -6.59, 10.13, -65.25,45036,,,
acc002, 122.07, 86.18, 1003.91, -7.69, 6.65, -66.59,45050,,,
acc002, 106.69, 103.27, 931.88, -8.36, 4.03, -67.14,45064,,,
acc002, 99.37, 115.23, 885.50, -8.48, 2.20, -66.10,45080,,,
acc002, 91.31, 126.95, 849.12, -7.69, 0.49, -63.78,45094,,,
acc002, 83.50, 132.57, 821.04, -6.71, -1.89, -60.85,45108,,,
acc002, 76.66, 136.72, 802.73, -5.80, -4.09, -59.08,45122,,,
acc002, 69.82, 141.60, 770.75, -4.03, -7.02, -57.01,45136,,,
acc002, 55.42, 147.95, 764.40, -2.93, -7.69, -55.36,45151,,,
acc002, 51.76, 151.61, 760.99, -1.89, -7.75, -53.83,45165,,,
acc002, 49.32, 148.19, 764.89, -0.79, -6.29, -51.03,45179,,,
acc002, 66.65, 145.75, 805.66, 1.16, -4.76, -47.00,45196,,,
acc002, 72.02, 126.22, 846.68, 4.58, -3.91, -41.99,45210,,,
acc002, 66.65, 94.48, 889.16, 8.48, -3.48, -37.66,45227,,,
acc002, 63.72, 75.20, 937.26, 11.60, -1.28, -33.26,45241,,,
acc002, 53.22, 63.23, 983.64, 13.79, 2.44, -27.47,45255,,,
acc002, 37.11, 67.87, 1039.06, 16.48, 3.42, -21.06,45269,,,
acc002, 5.13, 66.41, 1081.30, 19.47, 2.01, -15.44,45283,,,
acc002, -16.60, 57.62, 1105.96, 20.57, -0.18, -12.21,45297,,,
acc002, -44.43, 49.32, 1133.30, 21.73, -2.99, -9.03,45311,,,
acc002, -77.39, 59.81, 1142.33, 21.24, -4.09, -7.45,45327,,,
acc002, -99.61, 110.11, 1161.62, 17.33, -4.27, -7.26,45341,,,
acc002, -68.85, 114.26, 1215.33, 10.13, -5.80, -4.52,45356,,,
acc002, -2.20, 1.71, 1306.40, 2.56, -7.02, 1.59,45370,,,
acc002, 27.34, -101.32, 1379.15, 1.40, -5.62, 5.62,45384,,,
acc002, 19.04, -94.97, 1331.79, 6.10, -4.27, 5.31,45398,,,
acc002, 7.81, -43.46, 1292.24, 9.09, -4.70, 5.07,45412,,,
acc002, -8.06, 11.72, 1282.96, 10.68, -6.10, 7.26,45427,,,
acc002, -7.81, -0.73, 1280.27, 8.06, -8.00, 12.51,45443,,,
acc002, -9.28, -16.85, 1270.26, 6.77, -8.61, 14.71,45457,,,
acc002, -9.52, -16.85, 1260.25, 3.30, -9.28, 17.27,45472,,,
acc002, -6.59, -16.36, 1260.25, -5.13, -10.50, 18.25,45489,,,
acc002, 5.62, -19.78, 1245.61, -11.84, -12.39, 17.46,45503,,,
acc002, 7.81, -1.22, 1215.82, -14.89, -14.16, 16.60,45517,,,
acc002, 10.99, 50.05, 1143.07, -18.43, -16.17, 16.17,45531,,,
acc002, 21.48, 92.04, 1055.91, -20.81, -15.99, 17.52,45545,,,
acc002, 28.08, 120.61, 963.38, -19.78, -13.55, 20.45,45559,,,
acc002, 20.26, 150.39, 886.23, -14.89, -10.31, 23.62,45575,,,
acc002, 13.67, 172.61, 842.77, -9.46, -7.45, 26.00,45589,,,
acc002, 19.29, 182.62, 819.58, -4.46, -5.13, 26.98,45603,,,
acc002, 19.29, 181.88, 810.30, -1.59, -3.85, 26.55,45617,,,
acc002, 12.45, 177.73, 803.96, 2.26, -1.83, 24.72,45631,,,
acc002, 4.39, 185.79, 792.24, 5.49, -0.61, 21.61,45645,,,
acc002, 11.96, 188.23, 804.93, 7.26, -0.24, 18.13,45659,,,
acc002, 25.39, 191.65, 817.63, 7.39, 0.98, 15.69,45674,,,
acc002, 30.27, 189.45, 831.54, 5.86, 3.36, 13.79,45690,,,
acc002, 30.52, 182.37, 848.14, 3.72, 6.90, 11.66,45704,,,
acc002, 31.49, 171.39, 868.90, 2.14, 10.56, 9.77,45719,,,
acc002, 21.24, 153.81, 905.03, 2.38, 12.39, 7.57,45733,,,
acc002, 18.31, 157.71, 954.10, 3.85, 10.93, 3.66,45750,,,
acc002, 25.15, 168.21, 987.79, 5.80, 7.14, -0.79,45764,,,
acc002, 41.99, 166.75, 1039.55, 6.90, 3.23, -5.07,45778,,,
acc002, 65.43, 163.57, 1062.26, 7.57, 1.40, -8.06,45792,,,
acc002, 99.37, 158.20, 1085.21, 10.07, -1.16, -12.02,45806,,,
acc002, 123.29, 144.29, 1119.87, 14.16, -1.71, -15.50,45822,,,
acc002, 139.65, 125.24, 1170.17, 18.25, 0.18, -18.98,45836,,,
acc002, 130.13, 146.00, 1198.73, 20.75, 3.66, -23.01,45850,,,
acc002, 111.33, 234.13, 1201.90, 17.82, 5.31, -27.89,45864,,,
acc002, 132.08, 284.42, 1227.78, 6.65, 5.00, -33.14,45878,,,
acc002, 196.04, 185.06, 1236.57, -4.76, 9.46, -38.88,45893,,,
acc002, 223.14, 119.87, 1283.69, -6.84, 12.94, -42.66,45907,,,
acc002, 232.91, 66.65, 1353.76, -4.03, 11.72, -47.42,45921,,,
acc002, 236.57, -15.87, 1391.85, 3.85, 6.10, -53.04,45937,,,
acc002, 271.00, -49.80, 1425.54, 7.63, 2.75, -55.79,45951,,,
acc002, 301.51, -70.31, 1442.63, 13.00, 0.43, -58.17,45966,,,
acc002, 289.79, -73.00, 1416.75, 16.48, 0.31, -59.33,45980,,,
acc002, 277.59, -68.60, 1381.10, 16.85, 1.28, -59.81,45994,,,
acc002, 258.79, -58.59, 1339.60, 14.16, 3.60, -59.08,46012,,,
acc002, 229.25, -26.37, 1292.24, 8.48, 6.71, -57.86,46026,,,
acc002, 193.60, 9.52, 1222.90, 1.22, 8.85, -56.70,46040,,,
acc002, 165.04, 38.33, 1152.59, -6.04, 8.61, -55.42,46054,,,
acc002, 143.55, 58.59, 1107.67, -10.07, 7.08, -54.81,46066,,,
acc002, 122.31, 88.62, 1028.32, -13.49, 3.30, -53.96,46080,,,
acc002, 99.12, 117.68, 946.04, -13.98, -1.46, -53.04,46094,,,
acc002, 82.28, 141.36, 863.77, -11.72, -5.49, -50.78,46108,,,
acc002, 70.31, 172.61, 785.89, -7.81, -6.23, -47.30,46122,,,
acc002, 62.26, 194.82, 740.23, -4.88, -6.10, -44.86,46136,,,
acc002, 49.07, 216.80, 700.20, -0.73, -5.37, -41.56,46150,,,
acc002, 45.17, 224.61, 691.65, 2.20, -5.19, -38.82,46164,,,
acc002, 40.77, 221.44, 692.38, 4.09, -4.76, -36.13,46181,,,
acc002, 36.62, 218.51, 711.18, 4.76, -4.82, -33.02,46195,,,
acc002, 29.30, 219.97, 717.29, 4.46, -6.23, -30.70,46209,,,
acc002, 27.10, 220.46, 712.16, 3.97, -6.41, -29.11,46223,,,
acc002, 18.80, 223.88, 721.19, 4.09, -5.74, -28.20,46238,,,
acc002, 13.43, 220.70, 754.15, 4.03, -4.33, -26.92,46252,,,
acc002, 15.14, 212.65, 780.76, 4.03, -3.42, -25.63,46266,,,
acc002, 10.25, 197.27, 834.47, 6.16, -2.38, -22.22,46284,,,
acc002, -0.98, 185.30, 870.36, 8.79, -3.85, -19.90,46299,,,
acc002, -0.49, 187.26, 882.57, 11.60, -4.46, -17.76,46313,,,
acc002, -2.44, 198.00, 891.60, 14.77, -2.93, -14.28,46327,,,
acc002, -14.65, 207.03, 902.10, 16.91, -1.77, -11.17,46341,,,
acc002, -30.27, 215.82, 932.13, 18.86, -0.73, -5.74,46356,,,
acc002, -33.20, 203.61, 978.76, 19.04, -0.37, 0.49,46370,,,
acc002, -39.79, 177.73, 1045.17, 19.90, -2.01, 6.65,46384,,,
acc002, -63.23, 151.61, 1076.17, 22.58, -6.04, 11.23,46398,,,
acc002, -79.10, 134.77, 1077.39, 26.12, -9.52, 14.10,46412,,,
acc002, -83.98, 161.38, 1057.62, 30.46, -9.64, 17.94,46428,,,
acc002, -117.19, 224.61, 1046.39, 33.26, -8.12, 22.03,46442,,,
acc002, -127.69, 243.41, 1043.46, 32.29, -5.07, 25.39,46456,,,
acc002, -112.06, 214.11, 1067.63, 31.98, -2.62, 26.98,46471,,,
acc002, -107.18, 179.69, 1161.38, 32.90, -0.61, 29.30,46485,,,
acc002, -104.98, 154.79, 1238.04, 31.31, 1.65, 31.25,46499,,,
acc002, -82.76, 132.32, 1268.07, 26.25, 1.46, 33.20,46514,,,
acc002, -59.33, 90.33, 1332.52, 20.20, -3.05, 36.87,46528,,,
acc002, 15.87, -36.38, 1533.69, 4.88, -7.02, 45.65,46547,,,
acc002, 21.48, -74.95, 1631.10, -2.62, -6.90, 49.93,46561,,,
acc002, 30.27, -92.53, 1659.42, -16.72, -9.83, 54.87,46575,,,
acc002, 1.46, -61.77, 1610.35, -30.46, -15.01, 60.06,46589,,,
acc002, -25.39, -13.18, 1512.94, -43.52, -18.25, 64.09,46603,,,
acc002, -49.32, 31.49, 1388.18, -51.94, -18.98, 64.15,46617,,,
acc002, -71.29, 74.46, 1261.96, -54.02, -18.74, 59.39,46631,,,
acc002, -78.86, 100.59, 1183.84, -53.10, -18.07, 54.02,46646,,,
acc002, -40.04, 150.88, 1068.12, -48.71, -12.45, 41.38,46662,,,
acc002, -17.33, 158.94, 1024.66, -44.56, -8.24, 35.34,46676,,,
acc002, 1.22, 166.99, 965.58, -35.40, -2.26, 26.00,46690,,,
acc002, 20.26, 193.85, 915.28, -25.15, 2.38, 15.75,46704,,,
acc002, 41.75, 214.84, 868.16, -17.21, 6.71, 4.64,46718,,,
acc002, 79.35, 224.85, 828.12, -11.54, 12.33, -5.00,46733,,,
acc002, 113.77, 221.68, 815.67, -6.84, 18.49, -11.72,46747,,,
acc002, 135.99, 216.80, 816.16, -2.81, 23.68, -16.54,46761,,,
acc002, 148.44, 213.38, 821.78, -0.67, 26.12, -19.71,46775,,,
acc002, 166.26, 191.65, 872.80, 2.26, 27.34, -27.40,46795,,,
acc002, 170.90, 176.51, 919.92, 3.48, 24.60, -33.33,46809,,,
acc002, 168.95, 154.54, 962.65, 4.03, 20.08, -39.98,46823,,,
acc002, 173.34, 128.17, 1013.92, 4.76, 14.34, -48.28,46837,,,
acc002, 189.45, 119.14, 1033.45, 6.77, 9.09, -54.81,46851,,,
acc002, 219.97, 107.67, 1062.26, 11.84, 1.22, -64.64,46865,,,
acc002, 251.46, 110.35, 1077.64, 17.88, -4.03, -73.61,46879,,,
acc002, 272.22, 135.99, 1085.69, 22.46, -4.46, -80.20,46893,,,
acc002, 293.46, 134.03, 1141.11, 22.22, -0.79, -84.17,46909,,,
acc002, 295.65, 78.61, 1291.75, 18.01, 1.53, -86.49,46923,,,
acc002, 318.85, 36.87, 1405.03, 12.63, -0.06, -85.27,46937,,,
acc002, 330.08, 10.99, 1460.69, 5.74, -2.62, -79.53,46951,,,
acc002, 323.73, -1.95, 1503.42, -0.24, -3.17, -76.05,46965,,,
acc002, 327.15, -8.79, 1576.66, -12.57, -4.76, -73.61,46980,,,
acc002, 328.86, -7.57, 1544.68, -23.13, -6.04, -72.08,46994,,,
acc002, 317.87, -0.49, 1461.91, -29.42, -5.25, -68.12,47008,,,
acc002, 302.98, 13.92, 1405.03, -31.86, -2.81, -62.74,47025,,,
acc002, 278.56, 30.52, 1334.47, -31.62, -0.18, -57.31,47039,,,
acc002, 225.34, 74.71, 1205.32, -28.02, 4.33, -51.21,47056,,,
acc002, 198.49, 93.02, 1147.95, -25.82, 5.86, -48.77,47070,,,
acc002, 158.69, 105.71, 1088.13, -21.67, 6.41, -46.57,47084,,,
acc002, 123.78, 123.54, 1017.82, -15.81, 4.39, -46.08,47098,,,
acc002, 108.15, 131.35, 952.64, -9.77, 1.46, -47.24,47112,,,
acc002, 101.32, 141.85, 899.17, -4.52, -0.67, -49.19,47126,,,
acc002, 110.35, 147.71, 861.08, -1.22, -1.71, -50.35,47142,,,
acc002, 113.77, 151.37, 838.62, 0.37, -1.22, -49.99,47156,,,
acc002, 113.04, 156.25, 825.20, 0.55, -0.06, -49.07,47170,,,
acc002, 116.21, 166.26, 821.29, -0.49, 0.98, -47.06,47184,,,
acc002, 109.37, 161.62, 812.50, -1.89, 1.65, -44.25,47199,,,
acc002, 93.99, 151.61, 815.43, -3.36, 3.23, -42.05,47213,,,
acc002, 92.53, 164.31, 833.25, -4.33, 4.64, -40.41,47227,,,
acc002, 90.58, 162.60, 858.89, -5.49, 5.80, -37.90,47241,,,
acc002, 87.40, 151.86, 866.70, -5.49, 6.53, -35.64,47255,,,
acc002, 74.71, 144.53, 883.06, -2.87, 10.38, -30.64,47272,,,
acc002, 66.16, 145.51, 921.39, 0.79, 12.63, -26.18,47286,,,
acc002, 59.57, 145.26, 961.18, 5.98, 12.88, -21.42,47300,,,
acc002, 38.33, 141.11, 996.34, 11.05, 12.39, -17.21,47318,,,
acc002, 27.83, 152.59, 1021.97, 14.40, 11.90, -14.40,47331,,,
acc002, 21.73, 159.42, 1049.07, 15.38, 11.60, -10.86,47345,,,
acc002, 16.60, 151.86, 1077.15, 15.08, 11.11, -8.54,47359,,,
acc002, 12.45, 141.85, 1123.29, 14.10, 9.22, -6.16,47373,,,
acc002, 3.91, 156.25, 1146.73, 12.27, 5.98, -5.37,47389,,,
acc002, 1.46, 185.55, 1155.52, 8.54, 2.44, -4.39,47403,,,
acc002, -2.93, 215.09, 1153.08, 4.21, 0.18, -2.20,47417,,,
acc002, -9.52, 245.85, 1124.51, 0.43, -0.92, 1.53,47431,,,
acc002, -22.95, 290.04, 1062.74, -1.04, -1.16, 5.98,47445,,,
acc002, -37.60, 332.03, 983.89, -0.06, -0.43, 8.67,47460,,,
acc002, -48.83, 398.44, 883.06, 3.05, 2.50, 12.15,47474,,,
acc002, -31.49, 403.81, 952.39, 4.70, 4.46, 16.17,47488,,,
acc002, 1.95, 267.82, 1126.95, 3.11, 1.71, 20.14,47502,,,
acc002, 41.50, 61.77, 1299.07, 3.60, -3.05, 23.62,47518,,,
acc002, 61.04, -69.58, 1384.52, 11.66, -4.39, 26.49,47533,,,
acc002, 36.87, -88.87, 1427.00, 19.10, -5.92, 27.16,47547,,,
acc002, 5.62, -52.25, 1443.85, 18.92, -10.74, 24.23,47561,,,
acc002, -13.43, -26.61, 1395.51, 12.94, -17.88, 18.43,47579,,,
acc002, -10.50, 12.94, 1326.90, 4.09, -23.80, 9.52,47593,,,
acc002, 11.47, 57.13, 1263.18, -5.62, -26.43, 0.79,47607,,,
acc002, 38.57, 91.31, 1189.45, -14.10, -25.02, -6.41,47621,,,
acc002, 74.95, 125.73, 1116.46, -19.78, -18.74, -10.93,47637,,,
acc002, 99.12, 149.90, 1055.91, -21.36, -10.80, -13.12,47651,,,
acc002, 109.13, 158.94, 1001.95, -19.29, -1.89, -14.16,47665,,,
acc002, 109.13, 158.69, 981.93, -16.30, 4.09, -14.40,47679,,,
acc002, 105.96, 165.77, 960.94, -9.89, 10.74, -14.28,47693,,,
acc002, 114.01, 166.50, 940.19, -1.71, 15.14, -13.12,47707,,,
acc002, 108.89, 175.29, 921.87, 6.41, 17.58, -11.47,47721,,,
acc002, 92.77, 179.93, 917.24, 12.39, 17.27, -9.83,47735,,,
acc002, 79.83, 172.85, 912.60, 15.20, 14.65, -9.46,47752,,,
acc002, 61.04, 152.83, 922.12, 16.24, 10.07, -10.68,47766,,,
acc002, 55.18, 134.77, 940.67, 16.11, 4.52, -12.57,47780,,,
acc002, 60.30, 123.05, 953.37, 15.38, 0.67, -14.28,47794,,,
acc002, 68.36, 119.38, 965.58, 13.06, -4.39, -17.58,47809,,,
acc002, 73.97, 128.17, 978.52, 8.79, -7.39, -21.67,47823,,,
acc002, 83.50, 124.27, 988.28, 2.99, -8.18, -26.61,47840,,,
acc002, 85.94, 116.94, 1004.64, 1.40, -7.39, -28.69,47854,,,
acc002, 87.16, 116.46, 1032.23, 1.16, -6.35, -30.40,47868,,,
acc002, 84.23, 118.65, 1085.69, 1.95, -8.54, -30.64,47884,,,
acc002, 84.23, 141.11, 1115.72, 1.95, -13.79, -30.46,47898,,,
acc002, 85.21, 124.02, 1125.73, -0.24, -19.47, -29.54,47912,,,
acc002, 99.12, 55.91, 1156.49, -3.23, -21.30, -27.77,47926,,,
acc002, 124.02, -6.59, 1258.30, -7.69, -16.97, -21.42,47940,,,
acc002, 121.58, -50.78, 1333.50, -12.63, -10.56, -12.33,47954,,,
acc002, 103.52, -68.60, 1339.84, -15.69, -7.32, -9.70,47969,,,
acc002, 77.39, -105.71, 1359.62, -20.63, -5.13, -14.10,47983,,,
acc002, 89.36, -110.84, 1394.04, -22.22, -7.81, -23.93,47999,,,
acc002, 117.68, -79.59, 1401.37, -22.64, -14.34, -31.07,48013,,,
acc002, 154.05, -60.06, 1385.74, -24.90, -19.10, -34.00,48028,,,
acc002, 196.29, -57.86, 1336.43, -26.55, -20.51, -33.14,48042,,,
acc002, 220.70, -51.03, 1283.69, -25.09, -18.19, -29.79,48056,,,
acc002, 235.60, -44.43, 1239.99, -21.42, -12.27, -25.27,48070,,,
acc002, 215.58, -35.64, 1205.32, -15.69, -6.41, -21.61,48085,,,
acc002, 188.96, -19.04, 1155.76, -9.22, -2.50, -19.65,48102,,,
acc002, 173.10, -6.84, 1093.99, -2.81, 0.37, -18.13,48118,,,
acc002, 157.47, 1.71, 1016.36, 5.43, 2.26, -16.85,48132,,,
acc002, 139.16, 5.62, 972.41, 13.31, 4.27, -16.24,48146,,,
acc002, 124.02, 8.06, 944.34, 18.92, 5.62, -17.46,48160,,,
acc002, 114.75, 11.72, 924.07, 21.73, 5.55, -19.04,48174,,,
acc002, 104.25, 21.00, 910.64, 24.23, 4.27, -20.81,48188,,,
acc002, 91.06, 30.52, 905.03, 24.11, 2.08, -22.22,48202,,,
acc002, 90.33, 29.79, 877.44, 22.16, 0.12, -22.83,48216,,,
acc002, 87.89, 35.40, 855.71, 21.00, -1.10, -21.48,48230,,,
acc002, 83.01, 47.85, 841.55, 21.12, -1.34, -19.23,48246,,,
acc002, 77.88, 40.77, 827.39, 22.52, -1.53, -15.93,48261,,,
acc002, 60.06, 21.00, 812.74, 27.04, -2.01, -11.60,48275,,,
acc002, 35.64, -12.70, 826.90, 33.57, -2.44, -6.41,48289,,,
acc002, 15.87, -40.04, 833.74, 38.64, -3.11, -3.05,48303,,,
acc002, -10.50, -58.11, 839.36, 46.26, -4.46, 1.65,48317,,,
acc002, -16.60, -71.04, 860.35, 52.12, -6.47, 4.64,48332,,,
acc002, -22.71, -99.12, 897.95, 55.48, -8.79, 6.47,48346,,,
acc002, -26.86, -129.39, 960.45, 54.75, -9.89, 7.81,48365,,,
acc002, -33.69, -123.54, 1003.42, 49.13, -9.77, 7.51,48379,,,
acc002, -39.79, -94.48, 1024.66, 43.27, -10.86, 7.26,48393,,,
acc002, -50.78, -51.03, 1030.27, 31.86, -15.44, 6.71,48407,,,
acc002, -49.32, -22.22, 990.72, 19.78, -20.20, 9.16,48421,,,
acc002, -7.81, -37.84, 954.59, 9.22, -20.39, 14.53,48435,,,
acc002, 36.13, -48.34, 989.75, 1.34, -15.44, 21.06,48449,,,
acc002, 41.99, -38.09, 1054.93, -3.72, -12.51, 25.57,48463,,,
acc002, -20.51, 10.25, 1117.92, -14.59, -14.47, 31.62,48480,,,
acc002, -45.65, 48.34, 1088.13, -21.06, -17.82, 32.78,48494,,,
acc002, -26.12, 96.19, 1055.91, -34.00, -18.68, 34.91,48508,,,
acc002, -6.84, 119.87, 1088.87, -48.10, -14.22, 39.00,48522,,,
acc002, -22.71, 117.92, 1136.72, -61.46, -8.36, 43.76,48536,,,
acc002, -46.14, 102.05, 1166.26, -71.04, -2.62, 47.42,48550,,,
acc002, -73.24, 100.83, 1187.99, -76.90, 1.59, 49.56,48565,,,
acc002, -93.99, 112.79, 1189.70, -79.71, 2.62, 48.03,48579,,,
acc002, -99.61, 132.08, 1179.44, -79.53, 1.53, 45.04,48593,,,
acc002, -86.43, 165.28, 1133.79, -73.91, -1.65, 37.84,48613,,,
acc002, -61.52, 196.78, 1080.57, -65.00, -2.87, 34.42,48627,,,
acc002, -31.49, 229.74, 1033.94, -54.81, -1.71, 32.53,48641,,,
acc002, -2.69, 262.70, 1011.72, -45.04, 0.98, 32.41,48655,,,
acc002, -0.24, 278.56, 992.19, -36.56, 3.91, 33.08,48669,,,
acc002, 4.15, 286.62, 982.67, -32.41, 5.74, 33.02,48683,,,
acc002, 26.86, 294.68, 959.72, -27.22, 8.18, 31.43,48697,,,
acc002, 59.08, 304.44, 938.96, -22.46, 10.50, 30.58,48711,,,
acc002, 86.18, 306.40, 952.88, -17.52, 12.82, 31.25,48727,,,
acc002, 93.99, 291.75, 976.32, -12.02, 12.39, 32.59,48741,,,
acc002, 81.30, 262.45, 1003.42, -6.90, 9.95, 32.78,48755,,,
acc002, 74.46, 231.69, 1018.31, -3.36, 7.87, 31.37,48769,,,
acc002, 77.88, 212.65, 1028.81, -0.67, 6.71, 28.81,48783,,,
acc002, 82.03, 203.37, 1043.46, 1.22, 6.10, 26.73,48798,,,
acc002, 93.99, 183.84, 1079.59, 3.91, 5.37, 23.25,48812,,,
acc002, 99.37, 158.69, 1121.34, 7.02, 3.66, 19.71,48826,,,
acc002, 91.80, 136.72, 1150.39, 10.13, 0.92, 15.81,48840,,,
acc002, 91.06, 127.44, 1167.24, 11.78, -1.10, 12.82,48853,,,
acc002, 89.60, 119.38, 1186.04, 14.59, -4.21, 7.93,48867,,,
acc002, 87.16, 139.40, 1192.87, 18.25, -9.09, 1.10,48884,,,
acc002, 99.37, 167.24, 1175.78, 19.78, -11.66, -1.71,48898,,,
acc002, 113.53, 181.64, 1179.69, 19.23, -11.96, -2.01,48912,,,
acc002, 128.66, 128.91, 1241.94, 15.38, -9.89, -1.22,48926,,,
acc002, 122.80, -5.62, 1363.77, 11.11, -7.39, -1.16,48940,,,
acc002, 94.97, -140.38, 1478.27, 10.07, -2.62, -0.31,48954,,,
acc002, 61.28, -187.26, 1508.79, 12.21, 4.39, 2.14,48970,,,
acc002, 53.96, -167.72, 1499.27, 12.27, 8.91, 3.36,48984,,,
acc002, 44.19, -128.66, 1481.20, 10.86, 6.41, 1.95,48998,,,
acc002, 34.42, -114.50, 1474.85, 8.97, 1.22, -0.12,49012,,,
acc002, 40.77, -98.88, 1428.71, 5.13, -7.69, -3.42,49027,,,
acc002, 56.40, -93.75, 1374.76, 0.79, -13.43, -6.71,49041,,,
acc002, 72.75, -90.82, 1324.95, -4.64, -14.22, -9.58,49055,,,
acc002, 98.88, -82.76, 1265.87, -8.24, -9.89, -10.74,49069,,,
acc002, 109.13, -72.02, 1220.70, -8.73, -2.99, -10.56,49085,,,
acc002, 106.20, -54.69, 1162.60, -6.35, 4.21, -9.89,49100,,,
acc002, 86.67, -28.32, 1100.83, -1.95, 9.09, -9.89,49114,,,
acc002, 60.55, -12.70, 1062.01, 2.38, 12.08, -10.38,49128,,,
acc002, 39.79, 22.71, 999.51, 10.50, 12.88, -13.00,49160,,,
acc002, 48.34, 51.03, 965.58, 13.06, 12.51, -14.40,49174,,,
acc002, 50.78, 63.48, 937.74, 14.95, 13.00, -14.47,49188,,,
acc002, 39.55, 71.04, 930.18, 15.75, 13.49, -14.53,49202,,,
acc002, 35.16, 78.37, 927.25, 16.30, 13.85, -15.32,49216,,,
acc002, 47.36, 84.23, 932.37, 17.88, 12.15, -16.42,49232,,,
acc002, 64.94, 95.46, 921.39, 20.26, 10.01, -16.11,49246,,,
acc002, 79.83, 110.84, 929.44, 22.71, 9.95, -14.59,49260,,,
acc002, 79.10, 118.16, 936.52, 24.41, 11.23, -12.21,49274,,,
acc002, 81.05, 120.85, 946.04, 26.18, 12.57, -9.77,49288,,,
acc002, 80.08, 123.05, 958.25, 27.47, 13.00, -7.93,49302,,,
acc002, 72.27, 125.49, 991.94, 28.87, 13.18, -4.58,49316,,,
acc002, 65.92, 123.29, 1015.38, 29.24, 12.39, -0.55,49331,,,
acc002, 52.98, 112.79, 1050.29, 28.87, 10.31, 3.60,49347,,,
acc002, 41.99, 99.12, 1084.47, 27.95, 8.18, 8.36,49361,,,
acc002, 31.25, 86.67, 1110.84, 27.10, 6.10, 12.88,49375,,,
acc002, 11.96, 87.40, 1123.29, 26.49, 3.48, 16.91,49390,,,
acc002, -9.77, 88.38, 1166.99, 24.17, -0.31, 19.59,49404,,,
acc002, -19.53, 86.43, 1169.92, 21.91, -5.19, 21.12,49421,,,
acc002, -29.79, 83.74, 1155.76, 20.14, -9.46, 22.28,49435,,,
acc002, -38.33, 101.56, 1122.56, 19.41, -11.17, 25.02,49449,,,
acc002, -60.55, 116.94, 1096.92, 18.55, -10.50, 28.69,49463,,,
acc002, -69.58, 115.23, 1103.52, 16.30, -6.71, 32.04,49479,,,
acc002, -54.93, 116.94, 1129.88, 15.38, -2.93, 33.51,49493,,,
acc002, -39.55, 110.35, 1157.96, 15.56, -1.16, 34.42,49507,,,
acc002, -36.38, 80.81, 1199.71, 18.74, -0.24, 36.50,49521,,,
acc002, -53.22, 51.76, 1216.55, 21.30, 1.77, 39.00,49535,,,
acc002, -82.52, 56.15, 1208.01, 22.52, 7.26, 42.11,49549,,,
acc002, -128.66, 79.59, 1227.05, 22.03, 10.99, 44.68,49563,,,
acc002, -167.97, 92.77, 1254.15, 19.10, 9.58, 45.90,49578,,,
acc002, -208.98, 88.62, 1265.14, 14.28, 5.00, 45.47,49594,,,
acc002, -215.33, 91.80, 1271.48, 5.92, 1.40, 42.48,49608,,,
acc002, -194.34, 105.22, 1277.59, -3.97, -1.53, 39.12,49622,,,
acc002, -174.07, 109.86, 1266.36, -10.19, -3.11, 37.29,49637,,,
acc002, -146.24, 117.43, 1209.96, -16.91, -4.03, 35.52,49651,,,
acc002, -113.04, 135.25, 1161.13, -19.71, -2.93, 35.28,49665,,,
acc002, -70.80, 165.04, 1122.07, -19.84, 1.16, 36.50,49682,,,
acc002, -59.57, 170.90, 1114.01, -19.53, 2.81, 37.90,49696,,,
acc002, -43.46, 185.79, 1069.09, -18.13, 5.92, 41.56,49712,,,
acc002, -51.27, 167.48, 1046.14, -16.24, 7.32, 43.46,49726,,,
acc002, -62.01, 139.40, 1037.35, -11.47, 9.77, 44.13,49740,,,
acc002, -60.79, 140.62, 997.56, -2.81, 10.80, 41.63,49754,,,
acc002, -58.59, 185.55, 950.20, 6.65, 12.82, 36.44,49768,,,
acc002, -62.74, 221.19, 921.87, 14.53, 15.14, 31.68,49782,,,
acc002, -61.04, 227.78, 915.77, 18.55, 16.42, 29.36,49797,,,
acc002, -52.00, 222.41, 927.00, 23.99, 17.94, 26.61,49811,,,
acc002, -37.11, 222.41, 932.37, 29.91, 18.25, 24.11,49825,,,
acc002, -29.79, 232.67, 937.99, 34.91, 18.86, 23.01,49841,,,
acc002, -29.05, 239.99, 941.65, 36.99, 19.17, 23.25,49855,,,
acc002, -20.75, 243.41, 955.08, 36.19, 18.19, 23.68,49869,,,
acc002, -46.63, 230.71, 932.62, 33.94, 14.40, 21.97,49884,,,
acc002, -54.93, 225.10, 929.20, 30.94, 12.21, 19.41,49898,,,
acc002, -39.06, 233.64, 935.79, 26.79, 12.27, 19.04,49912,,,
acc002, -24.17, 246.58, 946.29, 23.56, 12.45, 20.63,49927,,,
acc002, -17.58, 254.15, 939.70, 14.34, 12.39, 25.39,49944,,,
acc002, -45.41, 220.70, 927.73, 7.39, 13.24, 24.41,49960,,,
acc002, -43.46, 212.16, 919.92, 3.54, 13.79, 21.00,49974,,,
acc002, -16.11, 232.18, 919.43, 2.99, 14.34, 19.96,49988,,,
acc002, 10.01, 242.92, 917.97, 4.21, 14.22, 21.91,50002,,,
acc002, 16.60, 248.78, 913.33, 6.35, 12.27, 23.01,50016,,,
acc002, 7.08, 223.63, 920.90, 10.01, 7.14, 23.93,50030,,,
acc002, -21.48, 188.96, 938.23, 14.22, 1.71, 21.85,50044,,,
acc002, -17.33, 182.13, 952.88, 16.48, -0.79, 18.25,50058,,,
acc002, -1.95, 209.72, 964.36, 18.62, -2.81, 15.99,50073,,,
acc002, 11.47, 235.11, 971.68, 19.17, -6.71, 14.59,50089,,,
acc002, 7.08, 257.81, 968.26, 16.60, -9.95, 13.31,50103,,,
acc002, 4.15, 266.36, 968.51, 10.07, -11.35, 12.51,50117,,,
acc002, 18.31, 271.97, 944.09, 5.92, -11.60, 12.27,50131,,,
acc002, 51.03, 276.12, 892.33, 2.69, -10.99, 13.55,50146,,,
acc002, 48.34, 275.88, 869.38, 5.07, -11.96, 16.42,50160,,,
acc002, 27.10, 271.24, 801.76, 11.84, -12.02, 22.40,50174,,,
acc002, -12.21, 277.10, 744.87, 19.29, -8.54, 31.43,50188,,,
acc002, -10.25, 245.36, 733.89, 24.29, 1.34, 41.87,50208,,,
acc002, -2.44, 189.21, 768.80, 23.50, 10.86, 42.42,50222,,,
acc002, -5.86, 155.03, 804.44, 21.18, 16.60, 39.18,50236,,,
acc002, -7.81, 112.79, 877.69, 15.75, 21.24, 32.17,50250,,,
acc002, -11.96, 61.52, 922.61, 10.19, 20.02, 25.88,50264,,,
acc002, 2.20, 31.01, 922.85, 5.98, 17.03, 21.30,50278,,,
acc002, 31.98, 33.45, 907.47, 2.69, 16.17, 18.98,50292,,,
acc002, 40.28, 37.11, 895.02, 1.28, 15.32, 17.94,50306,,,
acc002, 45.17, 48.58, 872.80, 0.18, 12.63, 16.66,50320,,,
acc002, 27.59, 69.58, 852.54, -1.16, 9.46, 16.78,50336,,,
acc002, 14.89, 82.03, 845.70, -5.62, 7.51, 17.70,50350,,,
acc002, 30.27, 79.59, 808.84, -12.02, 9.89, 19.90,50364,,,
acc002, 41.02, 72.02, 775.39, -15.69, 13.06, 22.77,50379,,,
acc002, 24.41, 74.22, 781.74, -16.30, 13.61, 24.48,50393,,,
acc002, -8.30, 57.13, 812.74, -16.48, 11.60, 25.45,50407,,,
acc002, -20.02, 17.33, 822.75, -15.87, 9.52, 27.40,50421,,,
acc002, -14.40, -1.46, 825.68, -13.61, 8.48, 28.69,50436,,,
acc002, -0.73, 0.98, 847.66, -10.80, 7.26, 28.08,50455,,,
acc002, -3.66, 7.08, 870.36, -12.57, 5.92, 24.35,50469,,,
acc002, -7.57, 5.37, 903.81, -16.30, 4.27, 20.75,50483,,,
acc002, 1.71, -27.10, 921.87, -19.96, 3.97, 18.86,50497,,,
acc002, 3.66, -34.42, 910.64, -20.81, 6.53, 18.98,50511,,,
acc002, 12.70, -27.83, 914.06, -18.13, 10.07, 19.65,50525,,,
acc002, 18.31, 4.64, 947.02, -13.37, 10.86, 19.35,50539,,,
acc002, 3.91, 17.58, 947.02, -10.07, 9.40, 17.40,50553,,,
acc002, -5.86, 9.77, 928.71, -8.42, 10.31, 15.75,50567,,,
acc002, 0.49, 5.86, 921.14, -9.28, 17.09, 14.71,50583,,,
acc002, 15.63, 0.24, 943.85, -10.99, 26.73, 13.31,50597,,,
acc002, 8.30, -8.54, 1004.64, -11.54, 33.51, 10.01,50611,,,
acc002, 0.73, -18.31, 1040.28, -10.86, 34.67, 6.90,50626,,,
acc002, -15.87, -28.32, 1093.02, -10.07, 32.84, 1.65,50640,,,
acc002, -23.68, -35.64, 1156.98, -14.34, 32.17, -3.54,50654,,,
acc002, -10.74, -25.39, 1200.44, -24.35, 36.38, -8.00,50668,,,
acc002, 26.12, -0.73, 1198.00, -32.96, 37.23, -12.63,50683,,,
acc002, 28.56, 20.02, 1189.70, -36.25, 32.04, -16.42,50697,,,
acc002, 18.07, 62.74, 1190.67, -40.16, 25.82, -19.29,50716,,,
acc002, 10.25, 88.13, 1228.52, -42.79, 21.97, -19.17,50730,,,
acc002, 11.72, 112.06, 1309.57, -48.03, 12.51, -15.81,50744,,,
acc002, 18.31, 129.88, 1313.72, -54.02, 1.59, -6.90,50758,,,
acc002, 27.59, 136.72, 1253.66, -57.80, -10.56, 4.76,50772,,,
acc002, 17.82, 126.22, 1182.62, -59.88, -19.84, 15.56,50786,,,
acc002, 10.01, 94.73, 1164.31, -60.85, -23.44, 20.45,50800,,,
acc002, 10.99, 46.39, 1150.15, -60.85, -24.48, 23.99,50814,,,
acc002, 27.59, 3.91, 1136.96, -56.76, -24.05, 23.01,50830,,,
acc002, 47.85, -12.21, 1135.01, -47.91, -25.21, 18.25,50844,,,
acc002, 58.11, -17.33, 1138.43, -38.27, -26.67, 12.45,50859,,,
acc002, 54.69, -37.84, 1164.79, -30.70, -26.49, 8.00,50873,,,
acc002, 62.26, -30.76, 1187.74, -25.39, -23.01, 5.86,50887,,,
acc002, 84.72, 0.00, 1177.73, -21.36, -19.29, 4.82,50901,,,
acc002, 101.32, 24.17, 1146.24, -18.62, -17.03, 4.82,50915,,,
acc002, 113.28, 46.39, 1117.43, -14.10, -13.31, 6.23,50929,,,
acc002, 87.16, 47.12, 1122.07, -8.79, -7.93, 10.56,50946,,,
acc002, 70.07, 33.45, 1138.92, -7.08, -5.55, 13.00,50960,,,
acc002, 35.64, 16.11, 1155.03, -3.11, -2.81, 17.46,50977,,,
acc002, 22.46, 5.37, 1147.71, 0.67, -5.07, 17.70,50991,,,
acc002, 15.63, 10.25, 1139.16, 2.56, -6.71, 17.09,51005,,,
acc002, 5.86, 21.48, 1158.45, 1.83, -8.67, 14.71,51019,,,
acc002, 3.66, 23.44, 1178.71, -3.97, -10.50, 10.74,51033,,,
acc002, 17.82, 3.66, 1182.86, -10.62, -13.18, 7.69,51047,,,
acc002, 35.40, -4.39, 1162.84, -14.65, -15.26, 6.96,51061,,,
acc002, 44.43, 2.44, 1139.89, -16.60, -17.27, 6.90,51077,,,
acc002, 56.64, 21.73, 1112.79, -20.02, -16.11, 7.75,51092,,,
acc002, 66.16, 42.72, 1086.67, -26.49, -10.01, 10.25,51106,,,
acc002, 67.63, 45.41, 1064.94, -31.56, -4.76, 12.70,51120,,,
acc002, 34.18, 26.61, 1046.88, -38.76, 3.97, 16.42,51134,,,
acc002, 1.95, 13.67, 1116.94, -46.88, 12.27, 20.45,51148,,,
acc002, 8.79, -102.29, 1285.89, -43.70, -2.50, 21.61,51162,,,
acc002, 32.23, -156.74, 1289.31, -36.44, -18.62, 15.75,51177,,,
acc002, 49.07, -134.77, 1271.97, -32.29, -25.51, 8.30,51193,,,
acc002, 40.04, -100.10, 1242.19, -32.41, -26.37, 2.08,51207,,,
acc002, 36.38, -88.87, 1186.77, -32.71, -23.99, -1.53,51222,,,
acc002, 42.72, -72.27, 1121.83, -28.56, -20.14, -2.50,51239,,,
acc002, 47.61, -54.20, 1094.24, -20.51, -15.63, -1.04,51253,,,
acc002, 40.77, -40.04, 1123.29, -13.85, -9.83, 1.04,51267,,,
acc002, 34.91, -34.91, 1162.35, -10.62, -4.76, 2.20,51281,,,
acc002, 34.91, -48.10, 1166.99, -8.24, -2.62, 2.44,51295,,,
acc002, 35.64, -81.54, 1206.05, -0.31, -2.08, 1.71,51311,,,
acc002, 36.62, -90.58, 1218.02, 3.48, -2.81, 0.73,51325,,,
acc002, 42.97, -75.44, 1225.83, 6.84, -3.11, -0.49,51339,,,
acc002, 44.92, -54.93, 1198.73, 6.53, -2.87, -1.22,51353,,,
acc002, 40.77, -35.89, 1159.18, 4.39, -2.20, -1.65,51367,,,
acc002, 29.79, -29.30, 1099.37, 1.10, 0.31, -2.44,51381,,,
acc002, 24.41, -29.79, 1027.10, -0.12, 3.91, -3.91,51395,,,
acc002, 13.18, -35.40, 1046.88, -0.18, 7.02, -5.07,51409,,,
acc002, 14.16, -46.88, 1128.17, 3.72, 4.58, -6.41,51424,,,
acc002, 16.11, 16.36, 1215.09, 20.63, 6.41, -9.95,51446,,,
acc002, 24.66, 27.59, 1207.76, 13.67, -1.40, -9.77,51462,,,
acc002, 46.63, 7.81, 1191.65, 6.65, -4.27, -7.57,51479,,,
acc002, 69.09, -23.93, 1120.12, 4.33, -4.94, -3.78,51493,,,
acc002, 89.11, -41.50, 1132.32, 6.47, -6.71, 0.43,51507,,,
acc002, 87.40, -42.97, 1128.91, 9.28, -8.18, 2.38,51521,,,
acc002, 83.98, -40.28, 1130.13, 9.40, -7.57, 1.59,51535,,,
acc002, 89.84, -40.53, 1147.46, 7.39, -5.19, 0.67,51549,,,
acc002, 101.32, -51.51, 1169.19, 3.54, -2.38, -0.79,51563,,,
acc002, 98.14, -62.26, 1155.76, 0.55, -1.16, -2.62,51579,,,
acc002, 93.02, -73.24, 1133.54, -1.83, 0.61, -4.09,51593,,,
acc002, 86.18, -78.12, 1122.07, -4.82, 3.23, -4.03,51607,,,
acc002, 78.86, -90.33, 1112.55, -7.93, 5.55, -3.17,51621,,,
acc002, 75.20, -110.84, 1107.67, -9.95, 4.58, -3.30,51636,,,
acc002, 72.02, -119.63, 1102.29, -11.60, 2.01, -4.58,51650,,,
acc002, 71.29, -132.57, 1092.04, -13.43, 0.00, -5.68,51664,,,
acc002, 79.59, -151.37, 1102.54, -18.01, -1.16, -5.92,51678,,,
acc002, 93.02, -154.30, 1102.29, -25.63, -0.49, -6.23,51695,,,
acc002, 85.45, -151.86, 1086.43, -27.16, -3.23, -7.75,51709,,,
acc002, 87.16, -141.85, 1045.65, -27.89, -7.51, -10.44,51723,,,
acc002, 93.51, -122.80, 1011.47, -27.53, -12.08, -11.90,51740,,,
acc002, 94.48, -114.26, 995.85, -27.04, -13.31, -11.47,51754,,,
acc002, 105.47, -90.09, 978.52, -26.61, -14.53, -10.07,51768,,,
acc002, 94.73, -73.24, 970.70, -21.73, -17.03, -9.77,51782,,,
acc002, 114.01, -75.93, 972.17, -19.41, -20.81, -10.19,51796,,,
acc002, 126.46, -95.95, 1000.98, -15.14, -19.78, -8.91,51812,,,
acc002, 151.61, -116.70, 1020.75, -9.22, -17.82, -5.98,51826,,,
acc002, 160.89, -129.64, 1036.13, -1.71, -14.83, -2.08,51840,,,
acc002, 168.95, -146.00, 1054.44, 4.15, -7.20, 2.93,51854,,,
acc002, 147.46, -155.03, 1077.64, 8.12, -1.40, 5.68,51869,,,
acc002, 127.69, -144.53, 1059.57, 14.65, 3.36, 7.45,51883,,,
acc002, 113.04, -119.14, 1076.42, 20.69, 6.65, 7.20,51897,,,
acc002, 117.92, -81.30, 1086.43, 25.09, 6.96, 7.14,51911,,,
acc002, 119.14, -54.20, 1080.57, 27.28, 6.71, 8.42,51927,,,
acc002, 118.65, -40.04, 1082.76, 28.38, 5.80, 10.31,51942,,,
acc002, 104.00, -41.50, 1092.29, 29.42, 3.60, 11.78,51956,,,
acc002, 95.46, -42.48, 1091.31, 29.91, 1.95, 11.29,51970,,,
acc002, 90.82, -42.24, 1099.61, 29.36, 0.79, 9.46,51985,,,
acc002, 89.11, -42.24, 1118.16, 28.08, 0.43, 6.47,52002,,,
acc002, 101.56, -35.16, 1117.43, 26.06, 0.00, 4.03,52016,,,
acc002, 102.78, -27.10, 1115.97, 24.35, 0.06, 2.44,52030,,,
acc002, 109.13, -21.24, 1105.47, 23.44, 0.06, 1.65,52044,,,
acc002, 118.90, -9.52, 1094.97, 21.67, 0.85, 1.71,52060,,,
acc002, 123.78, -8.79, 1090.09, 20.94, 1.46, 2.44,52074,,,
acc002, 126.71, -5.62, 1091.55, 20.51, 1.04, 3.36,52088,,,
acc002, 122.80, -1.46, 1089.11, 19.78, 1.10, 4.76,52102,,,
acc002, 111.08, -0.49, 1072.02, 19.23, 1.10, 5.62,52116,,,
acc002, 117.19, 4.64, 1073.49, 18.55, 1.34, 6.16,52130,,,
acc002, 121.58, 13.18, 1083.01, 17.88, 0.49, 7.08,52144,,,
acc002, 125.24, 21.97, 1083.50, 17.76, -0.37, 8.00,52158,,,
acc002, 127.93, 34.42, 1070.31, 17.88, -2.01, 10.50,52174,,,
acc002, 122.07, 34.67, 1056.88, 18.19, -2.50, 11.90,52189,,,
acc002, 123.29, 36.13, 1049.32, 19.17, -3.30, 13.37,52203,,,
acc002, 123.05, 39.31, 1050.29, 20.57, -3.85, 14.16,52217,,,
acc002, 122.07, 38.82, 1047.85, 22.16, -5.68, 14.10,52231,,,
acc002, 162.84, 63.96, 1064.45, 25.51, -6.41, 13.79,52246,,,
acc002, 127.93, 91.80, 997.80, 31.62, -19.96, 14.89,52263,,,
acc002, 135.74, 94.73, 1042.24, 32.65, -18.43, 15.99,52277,,,
acc002, 134.52, 74.95, 1071.53, 27.40, -16.17, 16.11,52291,,,
acc002, 137.21, 58.11, 1089.11, 22.28, -16.17, 15.14,52307,,,
acc002, 141.60, 49.80, 1096.19, 18.01, -17.09, 12.88,52321,,,
acc002, 146.48, 54.93, 1092.53, 13.73, -17.40, 10.86,52335,,,
acc002, 149.41, 60.30, 1087.89, 8.67, -16.24, 9.46,52349,,,
acc002, 152.10, 60.30, 1094.48, 4.88, -14.83, 8.48,52363,,,
acc002, 156.01, 56.15, 1099.37, -1.46, -12.02, 7.14,52377,,,
acc002, 162.35, 52.98, 1098.88, -8.18, -8.73, 6.23,52391,,,
acc002, 159.42, 62.01, 1082.03, -14.65, -2.99, 6.47,52405,,,
acc002, 165.77, 54.69, 1070.31, -22.71, 4.58, 8.12,52422,,,
acc002, 157.47, 41.02, 1073.00, -28.02, 11.11, 9.52,52436,,,
acc002, 141.11, 23.93, 1057.13, -29.42, 13.55, 9.83,52450,,,
acc002, 137.21, 18.31, 1058.11, -27.47, 13.67, 9.52,52464,,,
acc002, 132.08, 16.11, 1052.25, -23.86, 13.24, 9.09,52479,,,
acc002, 131.59, 15.63, 1051.76, -21.42, 13.37, 8.91,52493,,,
acc002, 126.46, 14.65, 1058.35, -17.88, 13.92, 8.48,52507,,,
acc002, 117.92, 12.45, 1073.49, -13.79, 15.20, 6.77,52524,,,
acc002, 110.84, 9.28, 1076.17, -11.72, 15.32, 5.62,52538,,,
acc002, 105.22, 8.79, 1087.16, -7.32, 14.77, 2.81,52554,,,
acc002, 103.03, 8.79, 1089.60, -3.97, 13.92, 0.67,52568,,,
acc002, 104.25, 8.30, 1091.55, -1.59, 13.06, -0.73,52582,,,
acc002, 103.76, 10.74, 1095.95, 2.01, 11.54, -2.44,52596,,,
acc002, 107.42, 12.94, 1098.88, 5.07, 10.50, -3.66,52610,,,
acc002, 106.20, 19.04, 1106.45, 7.39, 10.07, -4.70,52624,,,
acc002, 102.78, 19.78, 1103.27, 9.16, 10.01, -5.55,52639,,,
acc002, 101.07, 23.68, 1102.78, 10.13, 9.52, -6.04,52653,,,
acc002, 99.85, 27.59, 1105.47, 11.60, 8.67, -7.20,52669,,,
acc002, 100.10, 27.10, 1103.76, 12.21, 8.30, -7.57,52683,,,
acc002, 105.47, 33.69, 1099.12, 13.37, 6.71, -8.00,52697,,,
acc002, 107.42, 40.53, 1094.48, 15.01, 4.39, -8.18,52712,,,
acc002, 107.91, 44.68, 1089.84, 16.85, 1.46, -8.18,52726,,,
acc002, 111.82, 50.29, 1085.94, 18.86, -2.01, -8.06,52740,,,
acc002, 110.84, 53.71, 1080.08, 21.00, -6.16, -8.00,52754,,,
acc002, 114.01, 58.35, 1077.15, 23.32, -10.74, -8.00,52769,,,
acc002, 117.92, 62.01, 1070.56, 24.96, -15.26, -7.87,52786,,,
acc002, 120.36, 68.36, 1066.41, 26.18, -19.35, -7.75,52802,,,
acc002, 126.22, 74.95, 1058.84, 26.79, -22.95, -7.75,52816,,,
acc002, 132.32, 80.81, 1060.55, 26.79, -25.76, -7.57,52830,,,
acc002, 138.18, 85.69, 1058.35, 26.12, -27.89, -7.51,52844,,,
acc002, 142.09, 87.89, 1054.93, 25.21, -28.99, -7.26,52858,,,
acc002, 145.51, 93.75, 1049.80, 23.32, -29.79, -6.90,52872,,,
acc002, 152.34, 98.63, 1044.19, 20.81, -29.91, -6.59,52886,,,
acc002, 157.96, 104.25, 1047.61, 17.70, -29.24, -6.23,52900,,,
acc002, 164.06, 107.18, 1042.24, 14.16, -27.77, -5.74,52916,,,
acc002, 170.65, 109.37, 1041.26, 10.01, -25.63, -5.19,52930,,,
acc002, 175.05, 109.13, 1040.77, 5.62, -22.95, -4.58,52945,,,
acc002, 178.47, 109.62, 1036.87, 1.16, -19.65, -3.97,52959,,,
acc002, 180.18, 107.42, 1038.82, -3.17, -16.11, -3.60,52973,,,
acc002, 180.66, 108.15, 1038.33, -6.10, -13.43, -3.30,52987,,,
acc002, 183.35, 105.22, 1037.60, -10.07, -9.46, -2.87,53001,,,
acc002, 184.57, 100.34, 1038.57, -13.85, -5.31, -2.38,53016,,,
acc002, 185.30, 95.95, 1037.84, -18.01, 0.43, -2.20,53035,,,
acc002, 180.91, 90.58, 1038.57, -20.45, 4.46, -1.95,53049,,,
acc002, 180.91, 85.45, 1037.60, -22.22, 8.36, -1.83,53063,,,
acc002, 177.98, 81.79, 1042.72, -22.95, 10.68, -1.83,53077,,,
acc002, 176.03, 75.20, 1041.50, -23.68, 14.10, -2.01,53091,,,
acc002, 172.61, 68.36, 1044.92, -23.44, 17.03, -2.14,53105,,,
acc002, 167.97, 64.21, 1042.72, -22.83, 19.47, -2.26,53119,,,
acc002, 163.09, 58.59, 1048.34, -21.24, 21.61, -2.62,53133,,,
acc002, 161.13, 54.44, 1049.56, -19.35, 23.07, -2.87,53149,,,
acc002, 156.25, 49.07, 1056.15, -16.85, 23.93, -3.23,53163,,,
acc002, 153.32, 47.36, 1058.11, -14.89, 24.17, -3.30,53178,,,
acc002, 147.71, 44.68, 1058.35, -11.78, 24.05, -3.72,53192,,,
acc002, 144.29, 44.19, 1062.01, -8.36, 23.32, -4.09,53206,,,
acc002, 137.94, 43.21, 1070.31, -4.88, 22.22, -4.46,53220,,,
acc002, 135.50, 45.41, 1073.97, -1.28, 20.39, -4.88,53234,,,
acc002, 132.32, 46.14, 1077.39, 2.14, 18.19, -5.13,53249,,,
acc002, 130.62, 51.51, 1081.79, 5.25, 15.50, -5.31,53263,,,
acc002, 128.17, 52.73, 1086.67, 8.12, 12.39, -5.43,53279,,,
acc002, 128.42, 55.42, 1089.84, 10.38, 9.28, -5.55,53297,,,
acc002, 125.49, 61.52, 1092.77, 12.27, 5.80, -5.49,53311,,,
acc002, 125.73, 66.41, 1092.29, 13.79, 2.44, -5.43,53325,,,
acc002, 154.05, 93.02, 1071.04, 2.93, -20.45, -1.59,53485,,,
acc002, 156.74, 89.84, 1064.21, 0.79, -20.02, -1.22,53498,,,
acc002, 159.67, 94.48, 1057.62, -1.46, -19.29, -0.85,53512,,,
acc002, 162.84, 93.26, 1056.15, -2.87, -18.55, -0.73,53526,,,
acc002, 165.53, 89.11, 1052.00, -5.55, -16.42, -0.18,53542,,,
acc002, 165.77, 88.62, 1050.29, -6.84, -15.08, -0.12,53556,,,
acc002, 169.92, 87.40, 1044.19, -8.67, -12.76, 0.12,53570,,,
acc002, 169.92, 85.45, 1041.02, -10.07, -10.31, 0.43,53584,,,
acc002, 171.14, 83.01, 1039.06, -10.93, -7.81, 0.43,53598,,,
acc002, 171.63, 78.61, 1036.62, -11.84, -5.07, 0.49,53613,,,
acc002, 173.34, 76.42, 1033.69, -12.15, -3.36, 0.43,53627,,,
acc002, 173.58, 70.80, 1034.91, -12.21, -0.55, 0.43,53641,,,
acc002, 170.65, 70.31, 1036.13, -12.08, 2.20, 0.43,53655,,,
acc002, 169.43, 64.94, 1030.52, -11.60, 4.94, 0.24,53667,,,
acc002, 169.43, 64.70, 1034.91, -11.05, 6.53, 0.18,53682,,,
acc002, 167.24, 65.43, 1033.45, -10.07, 8.85, -0.06,53696,,,
acc002, 165.28, 62.26, 1038.33, -8.79, 11.11, -0.31,53710,,,
acc002, 164.55, 59.33, 1038.09, -7.32, 12.88, -0.49,53724,,,
acc002, 160.40, 57.62, 1039.31, -5.74, 14.40, -0.73,53739,,,
acc002, 158.20, 58.59, 1041.75, -3.91, 15.75, -0.98,53753,,,
acc002, 153.56, 58.59, 1045.65, -1.89, 16.60, -1.28,53770,,,
acc002, 154.30, 58.35, 1049.32, 0.00, 17.09, -1.59,53786,,,
acc002, 150.88, 59.81, 1053.96, 1.77, 17.21, -1.83,53800,,,
acc002, 147.71, 61.77, 1053.22, 3.66, 17.03, -1.83,53814,,,
acc002, 145.75, 62.99, 1060.06, 5.37, 16.36, -2.01,53828,,,
acc002, 143.31, 65.67, 1060.30, 7.08, 15.32, -2.20,53842,,,
acc002, 140.38, 65.92, 1063.48, 7.93, 14.47, -2.32,53856,,,
acc002, 135.74, 68.12, 1065.19, 9.28, 12.94, -2.32,53870,,,
acc002, 138.18, 71.29, 1072.02, 10.07, 11.17, -2.44,53884,,,
acc002, 137.94, 73.73, 1075.20, 10.99, 9.16, -2.38,53900,,,
acc002, 134.52, 76.42, 1080.57, 11.23, 6.96, -2.38,53915,,,
acc002, 135.50, 81.05, 1082.52, 11.41, 4.64, -2.14,53929,,,
acc002, 133.54, 80.08, 1085.94, 11.17, 2.20, -2.08,53943,,,
acc002, 132.32, 84.72, 1085.69, 10.68, -0.31, -1.95,53957,,,
acc002, 133.30, 83.74, 1087.89, 10.07, -1.95, -1.65,53971,,,
acc002, 133.79, 89.36, 1087.16, 9.28, -4.33, -1.46,53986,,,
acc002, 136.23, 91.31, 1086.18, 8.00, -6.65, -1.34,54000,,,
acc002, 138.18, 89.60, 1088.38, 6.77, -8.85, -0.92,54014,,,
acc002, 139.65, 91.31, 1086.18, 4.70, -11.29, -0.55,54034,,,
acc002, 142.09, 91.06, 1081.05, 3.17, -12.88, -0.31,54047,,,
acc002, 143.80, 91.80, 1076.90, 1.53, -14.16, -0.12,54061,,,
acc002, 145.26, 90.33, 1075.44, 0.49, -14.95, 0.18,54075,,,
acc002, 148.44, 90.33, 1075.20, -1.16, -15.69, 0.37,54089,,,
acc002, 150.15, 89.36, 1074.46, -2.75, -15.99, 0.61,54103,,,
acc002, 153.32, 87.16, 1069.09, -4.21, -16.05, 0.73,54117,,,
acc002, 157.23, 84.47, 1066.16, -5.19, -15.63, 0.92,54132,,,
acc002, 159.91, 85.94, 1059.08, -6.35, -14.83, 0.92,54148,,,
acc002, 163.09, 83.01, 1055.42, -7.26, -13.73, 0.98,54162,,,
acc002, 161.87, 81.79, 1055.66, -7.69, -12.94, 1.10,54176,,,
acc002, 165.77, 79.59, 1053.22, -8.30, -11.23, 1.04,54190,,,
acc002, 166.26, 77.64, 1049.07, -8.67, -9.34, 1.04,54204,,,
acc002, 167.24, 74.95, 1045.41, -8.79, -7.39, 0.92,54219,,,
acc002, 168.70, 73.73, 1042.72, -8.67, -5.19, 0.85,54233,,,
acc002, 170.17, 73.24, 1040.53, -8.54, -2.87, 0.67,54247,,,
acc002, 168.21, 71.29, 1041.26, -8.06, -0.31, 0.49,54261,,,
acc002, 169.19, 68.36, 1039.06, -7.63, 1.95, 0.31,54281,,,
acc002, 168.95, 68.12, 1037.11, -6.84, 4.21, 0.24,54295,,,
acc002, 166.26, 68.36, 1040.53, -6.04, 6.59, -0.18,54309,,,
acc002, 164.55, 68.36, 1038.82, -5.00, 8.48, -0.31,54323,,,
acc002, 165.77, 67.38, 1043.46, -4.09, 10.31, -0.55,54337,,,
acc002, 163.09, 67.14, 1044.92, -3.36, 11.47, -0.67,54351,,,
acc002, 159.91, 67.63, 1044.19, -2.32, 12.82, -0.98,54365,,,
acc002, 158.20, 67.38, 1045.65, -1.28, 14.04, -1.04,54379,,,
acc002, 155.52, 66.89, 1047.12, -0.06, 14.83, -1.28,54395,,,
acc002, 153.08, 66.89, 1052.98, 0.98, 15.26, -1.34,54409,,,
acc002, 150.39, 68.60, 1057.62, 1.95, 15.26, -1.46,54423,,,
acc002, 147.71, 69.58, 1061.28, 2.99, 14.95, -1.53,54438,,,
acc002, 144.53, 70.56, 1062.26, 3.85, 14.40, -1.71,54452,,,
acc002, 142.33, 72.51, 1062.99, 4.64, 13.49, -1.77,54466,,,
acc002, 139.89, 72.51, 1065.19, 5.19, 12.82, -1.77,54480,,,
acc002, 138.18, 74.22, 1070.31, 5.68, 11.29, -1.77,54494,,,
acc002, 137.70, 75.44, 1070.31, 6.10, 9.70, -1.71,54509,,,
acc002, 137.21, 73.49, 1075.68, 6.41, 7.69, -1.71,54525,,,
acc002, 135.99, 76.90, 1074.46, 6.53, 5.07, -1.65,54542,,,
acc002, 134.28, 80.57, 1078.61, 6.53, 2.87, -1.46,54556,,,
acc002, 133.79, 79.83, 1078.37, 6.47, 1.28, -1.40,54570,,,
acc002, 133.79, 81.54, 1080.08, 6.10, -0.85, -1.28,54584,,,
acc002, 136.47, 82.28, 1080.57, 5.80, -3.05, -1.04,54598,,,
acc002, 136.47, 82.28, 1080.08, 5.31, -5.13, -0.85,54612,,,
acc002, 139.65, 84.23, 1077.88, 4.70, -7.14, -0.73,54626,,,
acc002, 139.65, 84.23, 1080.32, 3.91, -8.73, -0.61,54642,,,
acc002, 140.38, 85.45, 1078.13, 3.11, -10.44, -0.37,54657,,,
acc002, 145.02, 84.96, 1076.17, 2.20, -11.78, -0.18,54671,,,
acc002, 146.00, 85.69, 1077.88, 1.65, -12.39, -0.06,54685,,,
acc002, 146.97, 84.96, 1074.46, 0.67, -13.18, 0.06,54699,,,
acc002, 149.66, 84.47, 1073.00, -0.18, -13.73, 0.24,54713,,,
acc002, 151.61, 87.16, 1068.60, -1.16, -13.92, 0.24,54727,,,
acc002, 155.03, 85.21, 1069.34, -2.08, -13.73, 0.49,54742,,,
acc002, 158.20, 85.94, 1065.43, -2.93, -13.12, 0.49,54756,,,
acc002, 160.16, 82.76, 1067.14, -3.66, -12.39, 0.61,54773,,,
acc002, 159.42, 81.05, 1062.01, -4.39, -11.35, 0.61,54787,,,
acc002, 165.53, 78.86, 1058.11, -4.88, -9.95, 0.67,54804,,,
acc002, 163.57, 78.12, 1055.91, -5.25, -8.36, 0.61,54818,,,
acc002, 166.75, 77.39, 1057.62, -5.68, -6.65, 0.55,54832,,,
acc002, 166.75, 76.66, 1053.47, -5.74, -4.76, 0.61,54846,,,
acc002, 166.26, 76.17, 1053.22, -5.86, -3.42, 0.31,54860,,,
acc002, 168.95, 75.20, 1051.03, -5.80, -1.34, 0.31,54874,,,
acc002, 167.48, 73.73, 1052.49, -5.49, 0.67, 0.18,54890,,,
acc002, 164.55, 73.73, 1052.00, -5.25, 2.62, 0.00,54904,,,
acc002, 166.50, 72.51, 1047.85, -4.82, 4.58, -0.12,54918,,,
acc002, 163.82, 71.29, 1049.56, -4.33, 6.35, -0.24,54932,,,
acc002, 163.33, 68.85, 1050.29, -3.66, 7.87, -0.43,54946,,,
acc002, 158.45, 69.58, 1049.07, -2.87, 9.22, -0.61,54960,,,
acc002, 157.71, 67.38, 1049.32, -2.38, 10.13, -0.67,54975,,,
acc002, 155.76, 70.31, 1051.76, -1.65, 10.99, -0.85,54989,,,
acc002, 156.49, 69.58, 1051.51, -0.92, 11.72, -0.92,55003,,,
acc002, 150.63, 68.60, 1049.07, -0.06, 12.21, -1.04,55019,,,
acc002, 149.90, 69.34, 1054.69, 0.73, 12.27, -1.10,55034,,,
acc002, 147.95, 70.07, 1052.49, 1.53, 12.15, -1.28,55048,,,
acc002, 144.53, 72.51, 1057.86, 2.38, 11.41, -1.28,55065,,,
acc002, 143.31, 72.51, 1060.30, 2.81, 10.86, -1.34,55079,,,
acc002, 141.60, 72.27, 1057.86, 3.48, 9.95, -1.40,55093,,,
acc002, 139.40, 75.20, 1061.04, 3.85, 8.85, -1.53,55107,,,
acc002, 139.16, 75.20, 1064.21, 4.27, 7.39, -1.34,55121,,,
acc002, 137.45, 76.66, 1064.94, 4.39, 5.92, -1.22,55137,,,
acc002, 137.94, 78.86, 1068.36, 4.52, 4.15, -1.22,55151,,,
acc002, 136.23, 79.59, 1066.16, 4.52, 2.44, -1.16,55165,,,
acc002, 137.45, 78.12, 1068.36, 4.33, 1.28, -0.98,55179,,,
acc002, 135.50, 82.03, 1067.87, 4.21, -0.43, -0.85,55194,,,
acc002, 138.18, 80.81, 1066.41, 3.91, -2.32, -0.85,55208,,,
acc002, 139.16, 81.79, 1070.56, 3.54, -3.91, -0.73,55222,,,
acc002, 140.62, 83.25, 1069.82, 2.99, -5.43, -0.55,55236,,,
acc002, 141.85, 82.76, 1070.31, 2.50, -6.77, -0.37,55250,,,
acc002, 143.80, 83.01, 1068.12, 1.89, -7.93, -0.31,55267,,,
acc002, 146.00, 82.03, 1068.12, 1.22, -8.91, -0.12,55281,,,
acc002, 146.97, 82.52, 1069.58, 0.61, -9.52, -0.06,55295,,,
acc002, 150.88, 83.25, 1072.51, 0.18, -9.89, 0.00,55309,,,
acc002, 151.86, 83.01, 1067.14, -0.61, -10.19, 0.12,55327,,,
acc002, 156.49, 80.08, 1066.65, -1.28, -10.07, 0.24,55341,,,
acc002, 156.01, 81.05, 1066.16, -1.71, -9.77, 0.12,55355,,,
acc002, 156.98, 79.83, 1067.63, -2.20, -9.28, 0.24,55368,,,
acc002, 157.71, 79.10, 1068.12, -2.62, -8.54, 0.31,55382,,,
acc002, 158.94, 79.83, 1063.96, -2.93, -7.57, 0.31,55398,,,
acc002, 162.84, 78.12, 1065.92, -3.30, -6.47, 0.24,55412,,,
acc002, 162.35, 77.39, 1063.48, -3.48, -5.31, 0.31,55426,,,
acc002, 162.35, 76.66, 1061.77, -3.66, -4.09, 0.18,55441,,,
acc002, 163.09, 76.17, 1061.77, -3.66, -2.62, 0.12,55455,,,
acc002, 162.60, 75.68, 1061.04, -3.60, -1.46, 0.12,55469,,,
acc002, 163.33, 75.20, 1057.62, -3.54, -0.24, 0.06,55483,,,
acc002, 163.33, 73.49, 1060.06, -3.36, 1.10, -0.12,55497,,,
acc002, 158.94, 75.93, 1060.79, -3.17, 2.32, -0.12,55513,,,
acc002, 160.40, 76.42, 1059.57, -2.99, 3.54, -0.24,55528,,,
acc002, 159.91, 73.49, 1057.13, -2.50, 4.58, -0.24,55542,,,
acc002, 159.67, 73.73, 1057.37, -2.14, 5.49, -0.43,55556,,,
acc002, 157.47, 71.53, 1056.15, -1.83, 6.10, -0.55,55571,,,
acc002, 154.05, 74.71, 1054.69, -1.46, 6.84, -0.61,55588,,,
acc002, 153.32, 72.02, 1053.71, -1.04, 7.26, -0.73,55602,,,
acc002, 151.86, 71.29, 1057.86, -0.61, 7.45, -0.61,55616,,,
acc002, 149.17, 73.97, 1057.13, -0.24, 7.32, -0.67,55630,,,
acc002, 149.90, 73.97, 1058.59, 0.18, 7.26, -0.85,55646,,,
acc002, 147.46, 75.93, 1057.13, 0.61, 6.90, -0.85,55660,,,
acc002, 145.02, 74.46, 1054.69, 0.98, 6.35, -0.85,55674,,,
acc002, 146.24, 74.22, 1053.96, 1.16, 5.92, -0.85,55688,,,
acc002, 145.75, 75.20, 1055.66, 1.46, 5.37, -0.98,55702,,,
acc002, 142.82, 74.95, 1058.84, 1.71, 4.46, -0.85,55717,,,
acc002, 145.02, 73.73, 1055.66, 2.08, 3.60, -0.92,55731,,,
acc002, 143.55, 74.71, 1056.15, 2.14, 2.56, -0.85,55745,,,
acc002, 141.60, 77.39, 1058.35, 2.20, 1.65, -0.73,55761,,,
acc002, 143.80, 79.10, 1059.57, 2.26, 0.49, -0.67,55775,,,
acc002, 144.53, 77.39, 1060.30, 2.26, -0.43, -0.61,55790,,,
acc002, 144.53, 78.37, 1061.04, 2.32, -1.04, -0.55,55804,,,
acc002, 146.24, 78.37, 1061.77, 2.14, -1.89, -0.73,55818,,,
acc002, 147.46, 79.83, 1060.30, 2.08, -2.69, -0.61,55833,,,
acc002, 146.24, 79.59, 1063.23, 1.77, -3.60, -0.37,55850,,,
acc002, 146.73, 78.61, 1062.26, 1.65, -4.09, -0.37,55864,,,
acc002, 147.22, 80.08, 1060.55, 1.40, -4.52, -0.37,55878,,,
acc002, 150.15, 78.86, 1063.72, 1.16, -4.94, -0.24,55894,,,
acc002, 151.12, 79.59, 1064.45, 0.85, -5.13, -0.18,55908,,,
acc002, 153.81, 81.05, 1063.23, 0.49, -5.19, -0.18,55922,,,
acc002, 152.10, 81.05, 1064.21, 0.12, -5.00, -0.24,55936,,,
acc002, 154.30, 80.08, 1066.41, -0.18, -4.88, -0.24,55950,,,
acc002, 153.56, 79.59, 1064.45, -0.49, -4.46, -0.18,55964,,,
acc002, 157.23, 79.83, 1065.92, -0.67, -4.21, -0.18,55978,,,
acc002, 157.47, 79.10, 1067.14, -0.98, -3.54, -0.12,55992,,,
acc002, 156.25, 79.59, 1065.19, -1.10, -3.23, -0.18,56009,,,
acc002, 157.96, 78.37, 1065.67, -1.46, -2.50, -0.24,56023,,,
acc002, 159.18, 78.86, 1063.96, -1.71, -1.77, -0.12,56037,,,
acc002, 160.40, 76.90, 1065.43, -1.83, -0.98, -0.12,56051,,,
acc002, 158.94, 76.90, 1062.74, -1.89, -0.37, -0.12,56066,,,
acc002, 156.49, 78.12, 1065.67, -1.89, 0.43, -0.18,56080,,,
acc002, 154.54, 77.15, 1062.74, -2.01, 1.10, -0.18,56094,,,
acc002, 157.47, 77.39, 1064.70, -1.95, 1.71, -0.24,56111,,,
acc002, 154.30, 76.17, 1064.45, -1.83, 2.38, -0.31,56125,,,
acc002, 155.03, 76.42, 1061.28, -1.71, 2.75, -0.31,56141,,,
acc002, 155.76, 74.95, 1063.72, -1.53, 3.11, -0.37,56155,,,
acc002, 152.34, 73.97, 1063.23, -1.34, 3.54, -0.43,56169,,,
acc002, 153.08, 75.68, 1064.21, -1.10, 3.60, -0.49,56183,,,
acc002, 153.56, 74.71, 1061.52, -0.79, 3.85, -0.49,56197,,,
acc002, 150.39, 76.42, 1062.50, -0.61, 3.97, -0.55,56211,,,
acc002, 150.15, 74.46, 1062.50, -0.31, 3.78, -0.61,56225,,,
acc002, 148.44, 74.46, 1063.72, 0.00, 3.66, -0.61,56240,,,
acc002, 150.15, 75.68, 1057.86, 0.31, 3.36, -0.61,56256,,,
acc002, 147.71, 74.46, 1057.86, 0.43, 3.11, -0.73,56270,,,
acc002, 147.46, 74.95, 1060.06, 0.67, 2.62, -0.61,56284,,,
acc002, 148.19, 75.20, 1059.08, 0.79, 2.26, -0.61,56298,,,
acc002, 144.78, 76.42, 1058.11, 1.10, 1.77, -0.61,56313,,,
acc002, 146.00, 76.90, 1057.37, 1.16, 1.16, -0.67,56327,,,
acc002, 144.78, 75.93, 1056.64, 1.28, 0.67, -0.61,56341,,,
acc002, 144.53, 76.17, 1056.88, 1.40, 0.12, -0.55,56355,,,
acc002, 145.51, 78.86, 1059.33, 1.40, -0.43, -0.55,56373,,,
acc002, 146.00, 75.44, 1054.69, 1.53, -1.22, -0.55,56389,,,
acc002, 146.48, 78.61, 1052.98, 1.40, -1.53, -0.49,56403,,,
acc002, 149.41, 78.61, 1056.40, 1.34, -2.14, -0.49,56417,,,
acc002, 146.24, 77.39, 1055.66, 1.34, -2.32, -0.43,56431,,,
acc002, 146.97, 78.37, 1056.15, 1.22, -2.75, -0.43,56445,,,
acc002, 151.12, 79.35, 1056.40, 1.04, -2.87, -0.37,56459,,,
acc002, 150.39, 77.88, 1055.42, 0.85, -3.05, -0.37,56473,,,
acc002, 152.10, 79.10, 1057.37, 0.67, -3.11, -0.24,56487,,,
acc002, 151.37, 80.32, 1058.35, 0.55, -3.11, -0.24,56501,,,
acc002, 153.56, 79.35, 1058.59, 0.37, -2.99, -0.24,56517,,,
acc002, 153.81, 77.15, 1057.62, 0.06, -2.69, -0.31,56531,,,
acc002, 154.30, 78.86, 1059.81, -0.18, -2.44, -0.18,56545,,,
acc002, 152.83, 80.57, 1059.08, -0.37, -2.08, -0.24,56560,,,
acc002, 154.05, 80.08, 1061.77, -0.61, -1.53, -0.31,56574,,,
acc002, 156.01, 78.61, 1060.30, -0.73, -1.04, -0.18,56588,,,
acc002, 155.76, 77.88, 1062.74, -0.85, -0.73, -0.24,56602,,,
acc002, 156.25, 80.32, 1063.72, -1.10, -0.12, -0.18,56617,,,
acc002, 154.30, 78.86, 1062.01, -1.40, 0.55, -0.31,56636,,,
acc002, 156.01, 79.10, 1066.16, -1.53, 1.16, -0.24,56650,,,
acc002, 157.47, 76.66, 1064.70, -1.59, 1.71, -0.31,56664,,,
acc002, 156.49, 77.64, 1067.38, -1.65, 1.89, -0.24,56678,,,
acc002, 156.49, 77.88, 1068.12, -1.71, 2.32, -0.37,56692,,,
acc002, 156.25, 77.88, 1067.14, -2.01, 2.62, -0.31,56706,,,
acc002, 152.83, 76.42, 1066.65, -2.01, 2.87, -0.31,56720,,,
acc002, 155.03, 77.64, 1066.16, -2.08, 2.87, -0.31,56734,,,
acc002, 151.61, 76.90, 1070.80, -2.14, 3.11, -0.18,56748,,,
acc002, 152.34, 77.64, 1070.56, -2.14, 3.05, -0.31,56764,,,
acc002, 152.10, 76.90, 1067.38, -2.01, 2.93, -0.31,56778,,,
acc002, 150.39, 75.93, 1068.85, -1.89, 2.75, -0.24,56793,,,
acc002, 148.93, 77.88, 1067.63, -1.77, 2.44, -0.31,56807,,,
acc002, 148.44, 76.17, 1068.85, -1.65, 2.01, -0.18,56821,,,
acc002, 148.68, 74.46, 1068.36, -1.34, 1.71, -0.31,56835,,,
acc002, 147.71, 76.17, 1063.96, -1.16, 1.22, -0.24,56850,,,
acc002, 149.17, 74.95, 1066.16, -0.85, 0.61, -0.37,56864,,,
acc002, 147.46, 73.97, 1066.41, -0.37, 0.12, -0.24,56883,,,
acc002, 146.97, 73.49, 1063.72, -0.18, -0.18, -0.24,56897,,,
acc002, 147.95, 74.22, 1062.01, 0.37, -0.55, -0.31,56911,,,
acc002, 147.71, 74.71, 1062.50, 0.79, -1.10, -0.43,56925,,,
acc002, 151.37, 72.02, 1061.04, 1.22, -1.34, -0.49,56939,,,
acc002, 149.66, 75.20, 1061.52, 1.71, -1.59, -0.37,56953,,,
acc002, 151.61, 74.71, 1062.50, 1.83, -1.71, -0.55,56967,,,
acc002, 149.66, 73.49, 1058.11, 2.38, -1.83, -0.55,56981,,,
acc002, 149.90, 72.75, 1059.08, 2.75, -2.01, -0.61,56995,,,
acc002, 153.32, 76.42, 1056.40, 2.93, -1.89, -0.67,57011,,,
acc002, 153.32, 74.71, 1055.42, 3.23, -1.89, -0.73,57025,,,
acc002, 153.81, 76.66, 1055.66, 3.60, -1.71, -0.73,57040,,,
acc002, 153.81, 75.20, 1056.40, 3.60, -1.53, -0.79,57054,,,
acc002, 152.83, 76.66, 1054.44, 3.60, -1.16, -0.79,57068,,,
acc002, 155.03, 75.93, 1053.47, 3.60, -0.98, -0.79,57082,,,
acc002, 155.52, 80.32, 1058.11, 3.36, -0.55, -0.67,57096,,,
acc002, 154.54, 78.61, 1055.66, 2.99, -0.24, -0.67,57111,,,
acc002, 155.03, 80.57, 1056.88, 2.75, 0.24, -0.73,57127,,,
acc002, 154.05, 82.28, 1058.84, 1.95, 0.67, -0.67,57144,,,
acc002, 155.76, 82.03, 1057.13, 1.34, 1.10, -0.55,57158,,,
acc002, 154.05, 83.98, 1058.11, 0.92, 1.22, -0.55,57172,,,
acc002, 152.83, 84.96, 1062.26, 0.24, 1.53, -0.55,57186,,,
acc002, 152.59, 85.94, 1060.06, -0.55, 1.71, -0.37,57200,,,
acc002, 149.66, 83.74, 1057.86, -1.34, 1.77, -0.24,57214,,,
acc002, 151.61, 84.96, 1062.26, -1.95, 1.89, -0.18,57228,,,
acc002, 151.86, 83.98, 1062.01, -2.38, 1.89, -0.24,57242,,,
acc002, 149.66, 83.25, 1066.16, -3.23, 1.77, 0.00,57258,,,
acc002, 150.39, 82.76, 1065.19, -3.78, 1.59, 0.00,57272,,,
acc002, 149.66, 82.76, 1065.19, -4.15, 1.40, 0.06,57287,,,
acc002, 150.15, 80.57, 1062.99, -4.46, 1.28, 0.12,57301,,,
acc002, 149.66, 79.10, 1065.67, -4.82, 0.73, 0.18,57315,,,
acc002, 147.22, 78.37, 1063.72, -4.88, 0.49, 0.12,57329,,,
acc002, 147.71, 76.90, 1064.21, -4.94, 0.00, 0.18,57343,,,
acc002, 147.22, 75.68, 1064.45, -4.70, -0.31, 0.24,57358,,,
acc002, 148.93, 75.20, 1062.99, -4.46, -0.98, 0.31,57374,,,
acc002, 146.24, 73.73, 1063.72, -4.15, -1.46, 0.18,57388,,,
acc002, 148.68, 72.51, 1064.21, -3.66, -1.89, 0.12,57406,,,
acc002, 147.95, 73.49, 1066.16, -2.99, -2.26, 0.06,57419,,,
acc002, 148.68, 70.56, 1066.41, -2.44, -2.44, 0.12,57433,,,
acc002, 149.66, 71.53, 1062.50, -1.65, -2.75, 0.00,57447,,,
acc002, 149.66, 72.02, 1064.70, -1.34, -2.87, -0.06,57461,,,
acc002, 150.63, 72.02, 1065.43, -0.55, -2.99, -0.18,57475,,,
acc002, 151.86, 71.04, 1060.55, 0.12, -2.99, -0.24,57489,,,
acc002, 153.08, 73.00, 1061.04, 0.85, -3.05, -0.43,57505,,,
acc002, 154.05, 72.51, 1063.48, 1.40, -2.81, -0.37,57520,,,
acc002, 154.54, 73.24, 1061.28, 2.01, -2.50, -0.43,57534,,,
acc002, 156.98, 73.73, 1060.30, 2.50, -2.20, -0.55,57548,,,
acc002, 154.79, 74.46, 1059.81, 2.87, -1.71, -0.61,57562,,,
acc002, 154.79, 74.95, 1060.06, 3.11, -1.40, -0.61,57576,,,
acc002, 156.01, 75.44, 1059.57, 3.30, -0.79, -0.73,57590,,,
acc002, 156.98, 76.90, 1060.55, 3.42, -0.12, -0.67,57605,,,
acc002, 156.01, 79.83, 1058.35, 3.36, 0.43, -0.79,57621,,,
acc002, 159.42, 80.57, 1060.55, 3.36, 1.10, -0.79,57635,,,
acc002, 156.25, 79.83, 1060.55, 3.05, 1.71, -0.79,57649,,,
acc002, 157.96, 78.86, 1059.81, 2.75, 2.69, -0.73,57667,,,
acc002, 156.25, 82.03, 1058.11, 2.56, 2.99, -0.79,57681,,,
acc002, 156.98, 81.05, 1059.57, 2.14, 3.54, -0.73,57695,,,
acc002, 155.03, 80.32, 1058.35, 1.59, 3.97, -0.67,57709,,,
acc002, 153.32, 82.52, 1063.96, 1.16, 4.33, -0.61,57723,,,
acc002, 152.83, 79.35, 1060.55, 0.73, 4.58, -0.61,57737,,,
acc002, 151.12, 81.79, 1059.33, 0.06, 4.76, -0.55,57753,,,
acc002, 150.39, 82.03, 1063.96, -0.31, 4.88, -0.49,57767,,,
acc002, 149.17, 80.08, 1059.57, -0.73, 4.76, -0.43,57781,,,
acc002, 150.39, 82.52, 1063.72, -1.22, 4.64, -0.43,57795,,,
acc002, 150.15, 80.81, 1063.96, -1.46, 4.33, -0.24,57809,,,
acc002, 147.95, 78.86, 1063.72, -1.77, 4.03, -0.31,57823,,,
acc002, 149.90, 80.08, 1062.01, -2.20, 3.48, -0.31,57837,,,
acc002, 145.75, 79.35, 1066.16, -2.32, 2.93, -0.24,57852,,,
acc002, 147.71, 77.15, 1065.19, -2.44, 2.62, -0.06,57866,,,
acc002, 146.73, 77.88, 1065.67, -2.56, 1.71, -0.06,57882,,,
acc002, 145.02, 78.12, 1064.21, -2.50, 0.92, -0.06,57896,,,
acc002, 145.26, 76.66, 1067.63, -2.44, 0.55, 0.00,57911,,,
acc002, 145.75, 77.39, 1061.04, -2.20, -0.55, 0.00,57928,,,
acc002, 146.24, 75.68, 1066.89, -2.08, -1.22, 0.00,57942,,,
acc002, 144.78, 75.68, 1061.28, -1.83, -1.59, 0.06,57956,,,
acc002, 148.44, 74.71, 1062.74, -1.59, -2.32, -0.12,57970,,,
acc002, 148.93, 74.95, 1059.57, -1.04, -2.87, 0.06,57984,,,
acc002, 147.95, 73.24, 1064.70, -0.67, -3.36, -0.12,58000,,,
acc002, 148.44, 71.78, 1060.30, -0.18, -3.78, -0.06,58014,,,
acc002, 148.44, 73.49, 1060.30, 0.31, -4.09, -0.18,58028,,,
acc002, 149.66, 73.49, 1058.35, 0.79, -4.27, -0.18,58042,,,
acc002, 153.08, 72.51, 1060.30, 1.04, -4.39, -0.31,58056,,,
acc002, 150.88, 74.95, 1057.13, 1.46, -4.46, -0.24,58070,,,
acc002, 152.10, 73.24, 1061.52, 1.89, -4.27, -0.31,58084,,,
acc002, 153.56, 75.44, 1059.33, 2.20, -4.09, -0.37,58099,,,
acc002, 153.32, 76.66, 1061.04, 2.56, -3.72, -0.43,58113,,,
acc002, 154.05, 75.44, 1056.40, 2.81, -3.48, -0.49,58129,,,
acc002, 156.25, 76.90, 1056.64, 2.99, -2.99, -0.37,58143,,,
acc002, 156.01, 77.15, 1058.59, 3.11, -2.38, -0.61,58158,,,
acc002, 153.81, 76.42, 1058.11, 2.99, -1.77, -0.55,58172,,,
acc002, 154.79, 76.66, 1059.81, 3.05, -1.22, -0.49,58189,,,
acc002, 155.03, 79.83, 1057.62, 2.87, -0.61, -0.67,58203,,,
acc002, 156.01, 78.86, 1058.11, 2.56, 0.00, -0.55,58217,,,
acc002, 154.79, 81.30, 1060.79, 2.14, 0.67, -0.55,58231,,,
acc002, 156.01, 79.10, 1059.57, 1.89, 1.22, -0.49,58247,,,
acc002, 154.05, 81.54, 1061.77, 1.34, 1.71, -0.43,58261,,,
acc002, 154.30, 83.01, 1055.18, 0.92, 2.01, -0.43,58275,,,
acc002, 154.54, 83.25, 1059.33, 0.37, 2.44, -0.49,58289,,,
acc002, 153.08, 82.28, 1062.01, -0.24, 2.75, -0.43,58303,,,
acc002, 151.86, 83.50, 1060.06, -0.92, 2.99, -0.24,58317,,,
acc002, 151.37, 85.45, 1060.06, -1.59, 3.17, -0.31,58331,,,
acc002, 152.34, 83.74, 1065.19, -2.01, 3.11, -0.31,58346,,,
acc002, 151.37, 83.25, 1065.92, -2.50, 2.99, -0.06,58360,,,
acc002, 151.12, 80.08, 1062.74, -3.30, 2.99, -0.06,58376,,,
acc002, 149.41, 81.54, 1065.19, -3.60, 2.81, 0.00,58390,,,
acc002, 147.95, 79.35, 1064.45, -4.15, 2.44, 0.12,58405,,,
acc002, 147.71, 81.54, 1064.45, -4.46, 2.14, 0.24,58419,,,
acc002, 148.19, 78.12, 1066.89, -4.70, 1.71, 0.24,58433,,,
acc002, 147.95, 80.81, 1066.41, -4.94, 1.10, 0.31,58451,,,
acc002, 146.24, 76.66, 1064.70, -5.00, 0.67, 0.37,58465,,,
acc002, 148.44, 78.61, 1064.45, -4.88, 0.12, 0.31,58478,,,
acc002, 148.68, 74.95, 1063.96, -4.88, -0.37, 0.31,58494,,,
acc002, 146.48, 73.73, 1062.50, -4.64, -0.85, 0.37,58508,,,
acc002, 147.46, 76.66, 1065.19, -4.27, -1.34, 0.31,58523,,,
acc002, 147.46, 73.73, 1063.72, -3.78, -1.77, 0.24,58537,,,
acc002, 148.93, 72.75, 1060.06, -3.36, -2.01, 0.31,58551,,,
acc002, 149.66, 74.71, 1065.43, -2.99, -2.38, 0.31,58565,,,
acc002, 148.19, 72.51, 1061.28, -2.20, -2.50, 0.12,58579,,,
acc002, 152.10, 73.00, 1063.72, -1.46, -2.62, 0.12,58593,,,
acc002, 151.37, 71.78, 1060.30, -0.85, -2.75, 0.06,58607,,,
acc002, 151.61, 71.53, 1062.99, -0.12, -2.62, 0.00,58624,,,
acc002, 153.56, 71.04, 1060.30, 0.67, -2.44, -0.12,58638,,,
acc002, 152.83, 71.78, 1062.74, 1.40, -2.32, -0.18,58652,,,
acc002, 154.79, 71.78, 1060.79, 2.08, -1.95, -0.55,58667,,,
acc002, 153.56, 70.07, 1063.48, 2.69, -1.59, -0.43,58681,,,
acc002, 154.79, 72.02, 1062.99, 3.11, -1.28, -0.55,58695,,,
acc002, 156.01, 71.78, 1061.77, 3.85, -0.55, -0.73,58712,,,
acc002, 156.01, 74.46, 1063.72, 4.39, -0.18, -0.67,58726,,,
acc002, 156.74, 74.71, 1061.04, 4.76, 0.31, -0.73,58740,,,
acc002, 154.79, 74.71, 1058.35, 5.00, 0.85, -0.85,58756,,,
acc002, 153.56, 77.64, 1060.30, 5.13, 1.40, -0.92,58770,,,
acc002, 156.98, 76.66, 1057.86, 5.37, 1.71, -1.10,58784,,,
acc002, 154.05, 76.42, 1062.26, 5.31, 2.08, -1.04,58798,,,
acc002, 154.30, 80.08, 1059.08, 5.25, 2.38, -1.04,58812,,,
acc002, 152.59, 81.05, 1062.01, 5.00, 2.69, -0.98,58827,,,
acc002, 154.54, 82.28, 1058.11, 4.70, 2.93, -1.10,58841,,,
acc002, 152.83, 81.05, 1060.06, 4.46, 3.11, -0.92,58855,,,
acc002, 150.39, 81.05, 1060.55, 3.85, 3.11, -0.85,58871,,,
acc002, 149.41, 82.03, 1062.50, 3.23, 3.05, -0.85,58885,,,
acc002, 149.90, 82.28, 1060.30, 2.87, 2.93, -0.85,58900,,,
acc002, 146.24, 82.52, 1058.35, 2.32, 2.69, -0.67,58914,,,
acc002, 148.44, 82.28, 1062.26, 1.65, 2.50, -0.61,58928,,,
acc002, 147.95, 84.72, 1061.04, 0.85, 2.14, -0.43,58942,,,
acc002, 147.22, 82.28, 1061.04, 0.18, 1.71, -0.24,58957,,,
acc002, 146.24, 85.45, 1059.81, -0.61, 1.40, -0.31,58974,,,
acc002, 144.53, 82.03, 1059.33, -1.22, 0.85, -0.12,58988,,,
acc002, 146.48, 83.50, 1062.01, -1.95, 0.37, -0.06,59004,,,
acc002, 145.75, 80.08, 1064.70, -2.56, -0.12, 0.06,59018,,,
acc002, 145.75, 82.28, 1062.26, -3.11, -0.73, 0.24,59032,,,
acc002, 147.71, 81.30, 1057.86, -3.60, -1.04, 0.31,59046,,,
acc002, 147.71, 80.81, 1059.57, -3.85, -1.34, 0.37,59060,,,
acc002, 149.17, 78.86, 1061.52, -4.21, -1.71, 0.37,59074,,,
acc002, 149.17, 79.83, 1062.26, -4.46, -2.08, 0.31,59088,,,
acc002, 147.46, 78.86, 1056.88, -4.52, -2.20, 0.37,59102,,,
acc002, 150.63, 78.61, 1062.01, -4.70, -2.38, 0.43,59118,,,
acc002, 149.41, 75.93, 1059.81, -4.70, -2.50, 0.43,59132,,,
acc002, 153.56, 73.49, 1060.55, -4.46, -2.50, 0.43,59147,,,
acc002, 151.37, 75.44, 1062.26, -4.27, -2.56, 0.49,59161,,,
acc002, 152.59, 74.71, 1060.06, -3.85, -2.26, 0.37,59175,,,
acc002, 151.61, 73.24, 1057.86, -3.78, -2.20, 0.37,59189,,,
acc002, 152.59, 73.73, 1061.52, -3.36, -2.01, 0.24,59204,,,
acc002, 154.30, 72.51, 1061.77, -2.75, -1.71, 0.18,59218,,,
acc002, 153.56, 73.24, 1063.72, -2.08, -1.16, 0.06,59235,,,
acc002, 155.27, 73.24, 1061.52, -1.46, -0.73, -0.12,59251,,,
acc002, 155.76, 72.51, 1064.45, -0.85, -0.37, -0.18,59265,,,
acc002, 154.54, 71.04, 1062.74, -0.31, -0.12, -0.24,59279,,,
acc002, 156.25, 73.00, 1063.72, 0.18, 0.43, -0.37,59293,,,
acc002, 153.32, 71.78, 1061.04, 0.85, 0.79, -0.37,59307,,,
acc002, 155.03, 73.24, 1063.23, 1.46, 1.28, -0.55,59321,,,
acc002, 154.05, 72.75, 1064.70, 1.95, 1.71, -0.55,59335,,,
acc002, 155.27, 73.73, 1065.43, 2.38, 2.01, -0.67,59350,,,
acc002, 152.83, 73.24, 1066.65, 2.62, 2.26, -0.67,59364,,,
acc002, 152.83, 73.97, 1067.38, 3.17, 2.62, -0.73,59380,,,
acc002, 152.83, 76.42, 1066.65, 3.30, 2.81, -0.85,59394,,,
acc002, 152.83, 74.95, 1065.92, 3.48, 2.81, -0.79,59408,,,
acc002, 150.88, 79.83, 1067.63, 3.66, 2.93, -0.79,59422,,,
acc002, 150.63, 79.35, 1068.36, 3.60, 2.87, -0.85,59437,,,
acc002, 151.61, 80.08, 1070.31, 3.48, 2.75, -0.85,59451,,,
acc002, 150.88, 79.35, 1069.58, 3.23, 2.56, -0.79,59465,,,
acc002, 151.12, 80.57, 1067.14, 2.99, 2.32, -0.79,59482,,,
acc002, 149.66, 80.57, 1071.29, 2.75, 1.83, -0.61,59503,,,
acc002, 148.44, 82.28, 1071.78, 2.20, 1.40, -0.67,59519,,,
acc002, 149.17, 83.98, 1071.04, 1.71, 1.16, -0.49,59533,,,
acc002, 145.02, 82.52, 1068.85, 1.28, 0.55, -0.43,59547,,,
acc002, 147.22, 82.76, 1070.07, 0.61, 0.12, -0.37,59561,,,
acc002, 146.97, 83.98, 1068.12, -0.06, -0.37, -0.24,59575,,,
acc002, 148.19, 83.74, 1066.89, -0.37, -0.73, -0.18,59589,,,
acc002, 146.97, 82.52, 1066.16, -1.04, -1.22, -0.12,59603,,,
acc002, 148.19, 78.86, 1063.96, -1.53, -1.83, 0.00,59617,,,
acc002, 147.22, 82.28, 1060.79, -1.95, -2.08, 0.12,59634,,,
acc002, 146.97, 81.05, 1058.84, -2.44, -2.69, 0.18,59648,,,
acc002, 147.46, 80.32, 1061.52, -2.81, -2.75, 0.31,59662,,,
acc002, 148.93, 78.61, 1057.37, -3.23, -3.17, 0.31,59676,,,
acc002, 150.39, 79.83, 1056.88, -3.36, -3.30, 0.31,59691,,,
acc002, 149.66, 77.39, 1057.13, -3.60, -3.48, 0.37,59705,,,
acc002, 150.88, 77.39, 1053.96, -3.72, -3.36, 0.37,59719,,,
acc002, 152.59, 76.90, 1052.73, -3.85, -3.36, 0.37,59736,,,
acc002, 150.88, 76.42, 1049.56, -3.78, -3.17, 0.49,59752,,,
acc002, 152.34, 75.20, 1049.56, -3.60, -2.81, 0.31,59767,,,
acc002, 151.61, 74.46, 1050.29, -3.42, -2.38, 0.37,59781,,,
acc002, 153.08, 74.22, 1049.56, -3.17, -1.89, 0.31,59795,,,
acc002, 153.56, 73.00, 1050.05, -2.99, -1.46, 0.24,59809,,,
acc002, 155.03, 72.51, 1049.07, -2.62, -0.92, 0.12,59823,,,
acc002, 154.30, 73.73, 1047.12, -2.08, -0.24, 0.12,59837,,,
acc002, 156.01, 73.97, 1052.25, -1.65, 0.49, 0.00,59851,,,
acc002, 156.01, 71.78, 1048.83, -1.10, 1.04, -0.24,59865,,,
acc002, 154.30, 72.27, 1049.07, -0.67, 1.83, -0.12,59881,,,
acc002, 156.25, 72.75, 1051.76, -0.18, 2.44, -0.31,59896,,,
acc002, 155.52, 71.78, 1053.47, 0.37, 2.93, -0.43,59910,,,
acc002, 153.56, 73.73, 1052.98, 0.79, 3.48, -0.49,59924,,,
acc002, 152.83, 72.51, 1052.00, 1.10, 3.78, -0.55,59938,,,
acc002, 152.34, 75.44, 1058.84, 1.40, 4.09, -0.55,59952,,,
acc002, 151.37, 74.95, 1060.55, 1.83, 4.15, -0.61,59967,,,
acc002, 150.88, 75.44, 1059.33, 2.14, 4.27, -0.55,59981,,,
acc002, 149.66, 77.88, 1062.01, 2.44, 4.21, -0.61,60000,,,
acc002, 147.71, 76.90, 1065.92, 2.38, 4.03, -0.67,60014,,,
acc002, 146.48, 76.90, 1065.19, 2.56, 3.85, -0.61,60028,,,
acc002, 146.24, 77.64, 1066.89, 2.62, 3.42, -0.67,60042,,,
acc002, 147.71, 78.61, 1068.85, 2.56, 2.87, -0.67,60056,,,
acc002, 147.71, 80.32, 1068.60, 2.50, 2.44, -0.61,60070,,,
acc002, 145.02, 78.61, 1072.51, 2.26, 1.71, -0.49,60084,,,
acc002, 146.24, 80.81, 1071.78, 2.14, 1.22, -0.49,60098,,,
acc002, 146.24, 81.05, 1071.78, 1.89, 0.55, -0.37,60112,,,
acc002, 146.48, 80.08, 1070.56, 1.53, -0.31, -0.31,60129,,,
acc002, 147.22, 81.05, 1073.49, 1.34, -0.85, -0.24,60143,,,
acc002, 146.24, 81.54, 1072.51, 1.10, -1.46, -0.24,60157,,,
acc002, 144.04, 80.08, 1074.46, 0.79, -2.08, 0.00,60171,,,
acc002, 149.41, 80.08, 1072.51, 0.43, -2.62, 0.06,60185,,,
acc002, 148.68, 79.83, 1070.56, 0.12, -2.99, 0.06,60200,,,
acc002, 147.46, 80.81, 1069.58, -0.18, -3.36, 0.06,60214,,,
acc002, 147.22, 79.10, 1068.85, -0.31, -3.42, 0.18,60228,,,
acc002, 151.86, 79.35, 1064.45, -0.61, -3.60, 0.18,60242,,,
acc002, 149.41, 80.57, 1067.38, -0.73, -3.66, 0.24,60262,,,
acc002, 152.10, 78.61, 1064.45, -0.92, -3.60, 0.24,60276,,,
acc002, 152.10, 78.37, 1061.52, -0.98, -3.42, 0.24,60290,,,
acc002, 153.08, 78.61, 1060.06, -0.98, -3.05, 0.24,60304,,,
acc002, 153.32, 76.17, 1062.01, -1.04, -2.81, 0.18,60318,,,
acc002, 154.30, 77.15, 1061.04, -1.04, -2.44, 0.24,60332,,,
acc002, 151.86, 75.93, 1056.88, -0.92, -1.89, 0.06,60346,,,
acc002, 155.27, 74.22, 1053.22, -0.85, -1.40, 0.12,60360,,,
acc002, 153.81, 76.66, 1053.96, -0.73, -1.04, 0.06,60376,,,
acc002, 154.30, 75.93, 1055.91, -0.43, -0.43, 0.06,60390,,,
acc002, 154.05, 75.44, 1051.76, -0.43, 0.06, -0.06,60404,,,
acc002, 154.30, 74.95, 1055.66, -0.24, 0.49, -0.12,60418,,,
acc002, 153.32, 74.22, 1057.62, -0.18, 0.85, 0.00,60433,,,
acc002, 155.03, 76.42, 1053.96, 0.06, 1.34, -0.12,60447,,,
acc002, 154.05, 75.68, 1053.71, 0.18, 1.77, -0.24,60461,,,
acc002, 153.56, 75.93, 1057.37, 0.37, 2.20, -0.24,60475,,,
acc002, 154.05, 74.22, 1055.91, 0.49, 2.44, -0.31,60490,,,
acc002, 152.10, 76.66, 1056.40, 0.61, 2.93, -0.31,60509,,,
acc002, 153.08, 76.90, 1059.81, 0.55, 3.11, -0.37,60523,,,
acc002, 150.88, 76.90, 1060.06, 0.55, 3.17, -0.31,60537,,,
acc002, 151.61, 77.64, 1059.33, 0.61, 3.30, -0.31,60551,,,
acc002, 151.37, 76.42, 1056.40, 0.49, 3.23, -0.37,60565,,,
acc002, 150.15, 78.86, 1061.04, 0.49, 3.17, -0.31,60579,,,
acc002, 150.15, 78.37, 1061.77, 0.31, 3.11, -0.37,60593,,,
acc002, 149.66, 77.88, 1063.96, 0.24, 2.87, -0.37,60607,,,
acc002, 149.41, 79.35, 1063.96, 0.06, 2.62, -0.24,60621,,,
acc002, 149.17, 77.88, 1063.48, -0.18, 2.20, -0.18,60637,,,
acc002, 149.17, 78.37, 1062.26, -0.24, 1.77, -0.18,60651,,,
acc002, 148.93, 81.05, 1063.48, -0.55, 1.34, -0.12,60665,,,
acc002, 146.97, 77.88, 1062.74, -0.67, 1.04, 0.00,60680,,,
acc002, 145.51, 79.10, 1064.21, -0.92, 0.55, -0.06,60694,,,
acc002, 146.48, 78.61, 1065.67, -1.04, 0.24, 0.00,60708,,,
acc002, 145.51, 77.39, 1066.65, -1.10, -0.18, -0.06,60722,,,
acc002, 148.44, 77.88, 1064.45, -1.16, -0.67, 0.06,60737,,,
acc002, 147.46, 78.86, 1065.67, -1.28, -1.04, 0.12,60753,,,
acc002, 147.46, 77.15, 1063.72, -1.34, -1.46, 0.06,60770,,,
acc002, 148.44, 76.17, 1062.99, -1.34, -1.77, 0.12,60784,,,
acc002, 147.71, 77.64, 1060.30, -1.28, -1.95, 0.06,60798,,,
acc002, 150.39, 75.44, 1064.21, -1.16, -2.14, 0.06,60812,,,
acc002, 151.61, 73.49, 1061.04, -1.22, -2.26, 0.06,60826,,,
acc002, 152.83, 75.93, 1062.50, -1.04, -2.20, 0.06,60840,,,
acc002, 150.39, 73.73, 1061.28, -0.98, -2.26, 0.06,60854,,,
acc002, 151.37, 75.93, 1062.50, -0.73, -2.20, 0.12,60868,,,
acc002, 153.08, 75.20, 1062.99, -0.61, -2.08, 0.12,60884,,,
acc002, 154.30, 76.17, 1060.55, -0.43, -1.95, -0.06,60898,,,
acc002, 150.63, 76.90, 1059.08, -0.24, -1.83, 0.06,60913,,,
acc002, 153.56, 75.44, 1061.52, -0.18, -1.71, -0.12,60927,,,
acc002, 151.61, 75.20, 1060.30, 0.06, -1.40, -0.06,60941,,,
acc002, 152.83, 75.68, 1060.55, 0.18, -1.22, -0.12,60955,,,
acc002, 153.56, 74.46, 1058.59, 0.37, -0.98, -0.18,60969,,,
acc002, 151.37, 75.68, 1062.99, 0.43, -0.73, -0.24,60984,,,
acc002, 150.88, 74.71, 1060.55, 0.67, -0.49, -0.12,61000,,,
acc002, 153.81, 76.90, 1065.19, 0.79, -0.37, -0.24,61014,,,
acc002, 152.59, 79.83, 1064.21, 0.79, -0.06, -0.24,61032,,,
acc002, 150.63, 77.39, 1066.65, 0.79, 0.00, -0.24,61046,,,
acc002, 153.32, 78.86, 1062.50, 0.73, 0.37, -0.24,61060,,,
acc002, 154.05, 80.32, 1065.19, 0.61, 0.43, -0.31,61073,,,
acc002, 151.86, 77.39, 1066.16, 0.55, 0.61, -0.24,61087,,,
acc002, 152.10, 78.61, 1068.60, 0.49, 0.67, -0.18,61101,,,
acc002, 152.59, 79.59, 1064.94, 0.37, 0.85, -0.24,61116,,,
acc002, 152.34, 80.32, 1070.31, 0.18, 0.98, -0.24,61132,,,
acc002, 150.88, 79.10, 1067.63, -0.06, 0.92, -0.18,61146,,,
acc002, 152.10, 81.05, 1068.85, -0.24, 1.16, -0.18,61160,,,
acc002, 152.83, 80.08, 1063.72, -0.61, 1.16, -0.06,61174,,,
acc002, 151.61, 78.86, 1062.99, -0.73, 1.22, -0.06,61188,,,
acc002, 154.30, 83.01, 1066.89, -0.92, 1.34, -0.12,61203,,,
acc002, 151.61, 79.59, 1065.67, -1.22, 1.28, 0.00,61217,,,
acc002, 153.08, 76.90, 1068.85, -1.28, 1.40, -0.06,61231,,,
acc002, 150.63, 78.37, 1066.65, -1.40, 1.46, 0.00,61247,,,
acc002, 152.59, 79.35, 1066.16, -1.46, 1.28, -0.06,61262,,,
acc002, 150.63, 79.35, 1064.45, -1.53, 1.40, 0.00,61276,,,
acc002, 151.12, 77.15, 1063.96, -1.53, 1.34, 0.00,61293,,,
acc002, 150.39, 76.66, 1065.19, -1.34, 1.34, 0.00,61307,,,
acc002, 150.63, 76.90, 1060.55, -1.34, 1.34, 0.00,61321,,,
acc002, 151.86, 74.46, 1062.74, -0.98, 1.10, 0.06,61335,,,
acc002, 150.15, 74.46, 1060.30, -0.67, 1.10, -0.18,61349,,,
acc002, 149.41, 74.95, 1058.35, -0.49, 1.04, -0.12,61363,,,
acc002, 152.10, 73.00, 1060.06, 0.00, 0.92, -0.06,61379,,,
acc002, 150.63, 76.66, 1057.62, 0.31, 0.61, -0.12,61393,,,
acc002, 150.39, 74.71, 1056.40, 0.79, 0.49, -0.31,61407,,,
acc002, 149.41, 71.78, 1055.18, 1.16, 0.49, -0.24,61421,,,
acc002, 148.68, 73.73, 1061.04, 1.59, 0.31, -0.24,61435,,,
acc002, 151.12, 75.20, 1059.81, 2.08, 0.12, -0.37,61450,,,
acc002, 147.22, 75.20, 1058.59, 2.38, 0.00, -0.43,61464,,,
acc002, 149.17, 73.49, 1054.93, 2.81, -0.24, -0.43,61478,,,
acc002, 149.90, 74.46, 1057.37, 3.05, -0.12, -0.49,61492,,,
acc002, 151.86, 76.42, 1058.59, 3.23, -0.37, -0.49,61508,,,
acc002, 150.15, 78.86, 1059.57, 3.42, -0.55, -0.55,61523,,,
acc002, 148.44, 79.10, 1055.18, 3.42, -0.73, -0.55,61537,,,
acc002, 149.90, 79.10, 1053.71, 3.36, -0.92, -0.43,61554,,,
acc002, 150.63, 79.10, 1054.20, 3.17, -0.92, -0.43,61568,,,
acc002, 148.68, 81.05, 1059.57, 2.87, -1.04, -0.49,61582,,,
acc002, 149.17, 81.54, 1056.40, 2.62, -1.10, -0.31,61596,,,
acc002, 149.17, 81.79, 1058.11, 2.26, -1.22, -0.24,61610,,,
acc002, 148.93, 80.81, 1056.88, 1.71, -1.16, -0.31,61626,,,
acc002, 151.37, 82.03, 1056.40, 1.22, -1.22, -0.18,61640,,,
acc002, 150.15, 83.74, 1056.64, 0.55, -1.04, -0.18,61654,,,
acc002, 152.34, 82.76, 1059.57, -0.06, -1.10, 0.00,61668,,,
acc002, 153.56, 83.01, 1061.04, -0.73, -0.98, 0.06,61682,,,
acc002, 152.10, 83.01, 1056.64, -1.53, -0.73, 0.12,61697,,,
acc002, 150.15, 81.54, 1057.37, -1.95, -0.55, 0.18,61711,,,
acc002, 152.83, 82.28, 1059.33, -2.50, -0.49, 0.24,61725,,,
acc002, 152.83, 81.30, 1059.08, -3.05, -0.18, 0.31,61739,,,
acc002, 152.34, 83.50, 1057.37, -3.72, 0.12, 0.37,61755,,,
acc002, 152.83, 79.83, 1061.52, -4.03, 0.37, 0.43,61770,,,
acc002, 152.34, 80.57, 1062.50, -4.39, 0.55, 0.43,61784,,,
acc002, 153.81, 81.30, 1058.11, -4.70, 0.73, 0.49,61798,,,
acc002, 152.10, 77.88, 1062.26, -4.76, 0.98, 0.49,61816,,,
acc002, 151.61, 76.90, 1062.01, -4.76, 1.10, 0.43,61830,,,
acc002, 152.83, 76.42, 1060.06, -4.76, 1.28, 0.49,61843,,,
acc002, 150.88, 75.68, 1062.26, -4.58, 1.34, 0.49,61857,,,
acc002, 151.37, 74.71, 1061.52, -4.27, 1.40, 0.49,61873,,,
acc002, 150.63, 75.20, 1063.48, -3.78, 1.34, 0.31,61887,,,
acc002, 150.39, 74.46, 1060.06, -3.17, 1.28, 0.43,61901,,,
acc002, 148.68, 72.02, 1065.19, -2.81, 1.10, 0.18,61916,,,
acc002, 149.17, 72.51, 1066.65, -2.20, 0.98, 0.12,61930,,,
acc002, 147.46, 71.78, 1065.67, -1.53, 0.85, 0.00,61944,,,
acc002, 150.39, 72.27, 1067.14, -0.85, 0.61, -0.06,61958,,,
acc002, 150.63, 72.02, 1069.09, 0.00, 0.24, 0.00,61972,,,
acc002, 148.44, 72.27, 1063.72, 0.67, -0.06, -0.06,61986,,,
acc002, 147.95, 72.75, 1065.43, 1.28, -0.37, -0.12,62003,,,
acc002, 146.73, 73.49, 1066.65, 1.95, -0.73, -0.24,62017,,,
acc002, 149.90, 74.71, 1064.94, 2.50, -1.04, -0.24,62031,,,
acc002, 148.68, 73.97, 1066.89, 2.75, -1.28, -0.24,62045,,,
acc002, 150.63, 74.71, 1065.67, 3.30, -1.65, -0.24,62060,,,
acc002, 151.37, 76.90, 1069.58, 3.54, -1.89, -0.37,62077,,,
acc002, 148.93, 75.44, 1067.14, 3.72, -2.08, -0.43,62091,,,
acc002, 149.17, 78.12, 1069.58, 3.78, -2.26, -0.43,62105,,,
acc002, 152.59, 78.37, 1068.12, 3.85, -2.26, -0.49,62119,,,
acc002, 152.10, 80.08, 1065.67, 3.66, -2.44, -0.37,62135,,,
acc002, 149.90, 80.08, 1065.92, 3.54, -2.38, -0.37,62149,,,
acc002, 153.32, 80.08, 1064.45, 3.23, -2.26, -0.37,62163,,,
acc002, 154.05, 81.30, 1063.72, 2.81, -1.95, -0.31,62177,,,
acc002, 155.27, 82.28, 1064.70, 2.32, -1.65, -0.31,62191,,,
acc002, 151.86, 83.98, 1064.45, 1.95, -1.46, -0.06,62205,,,
acc002, 152.83, 81.30, 1060.55, 1.53, -1.10, -0.12,62219,,,
acc002, 154.54, 83.98, 1061.04, 0.85, -0.55, -0.06,62233,,,
acc002, 156.25, 83.74, 1061.52, 0.43, -0.06, -0.12,62250,,,
acc002, 154.05, 83.01, 1059.81, -0.12, 0.37, 0.06,62264,,,
acc002, 156.98, 81.05, 1061.28, -0.73, 0.92, 0.06,62278,,,
acc002, 154.30, 81.54, 1057.37, -1.40, 1.46, 0.06,62292,,,
acc002, 154.79, 80.57, 1057.86, -1.83, 2.01, 0.18,62307,,,
acc002, 154.30, 80.32, 1059.57, -2.14, 2.56, 0.18,62321,,,
acc002, 154.05, 80.08, 1060.06, -2.44, 2.93, 0.18,62338,,,
acc002, 153.81, 80.32, 1056.88, -2.81, 3.36, 0.18,62352,,,
acc002, 153.08, 76.66, 1057.86, -2.87, 3.72, 0.12,62366,,,
acc002, 150.15, 75.68, 1057.86, -2.87, 3.97, 0.24,62382,,,
acc002, 150.39, 74.95, 1054.69, -2.99, 4.09, 0.12,62396,,,
acc002, 150.39, 75.20, 1056.15, -2.75, 4.09, 0.06,62410,,,
acc002, 151.37, 75.93, 1056.64, -2.56, 4.27, 0.12,62424,,,
acc002, 148.44, 73.24, 1054.93, -2.26, 4.03, 0.12,62438,,,
acc002, 147.95, 73.49, 1055.91, -1.71, 3.97, 0.06,62452,,,
acc002, 148.44, 73.97, 1056.88, -1.22, 3.60, 0.06,62466,,,
acc002, 148.44, 72.51, 1059.08, -0.73, 3.30, -0.06,62480,,,
acc002, 146.73, 73.24, 1058.59, -0.18, 2.75, -0.06,62497,,,
acc002, 146.97, 73.24, 1061.28, 0.49, 2.20, -0.06,62511,,,
acc002, 144.78, 72.27, 1059.08, 0.85, 1.83, -0.18,62525,,,
acc002, 146.00, 72.51, 1061.04, 1.59, 1.16, -0.24,62539,,,
acc002, 144.78, 72.51, 1059.57, 2.20, 0.55, -0.31,62554,,,
acc002, 143.55, 73.73, 1062.74, 2.81, -0.31, -0.31,62568,,,
acc002, 146.00, 72.75, 1065.67, 3.11, -1.04, -0.31,62582,,,
acc002, 143.80, 75.68, 1063.48, 3.60, -1.71, -0.31,62599,,,
acc002, 144.53, 77.15, 1062.26, 3.91, -2.44, -0.37,62613,,,
acc002, 146.97, 77.39, 1065.67, 4.09, -3.11, -0.37,62629,,,
acc002, 145.26, 77.88, 1065.19, 4.03, -3.72, -0.31,62643,,,
acc002, 145.75, 78.37, 1063.72, 3.97, -4.33, -0.37,62657,,,
acc002, 148.19, 83.01, 1065.19, 3.66, -4.76, -0.24,62671,,,
acc002, 150.39, 80.81, 1062.26, 3.36, -5.07, -0.24,62685,,,
acc002, 147.22, 83.50, 1065.19, 3.05, -5.25, -0.12,62699,,,
acc002, 150.88, 84.23, 1063.72, 2.38, -5.37, -0.06,62714,,,
acc002, 151.86, 84.96, 1064.21, 1.71, -5.37, 0.06,62728,,,
acc002, 152.83, 84.72, 1064.45, 0.85, -5.31, 0.18,62742,,,
acc002, 153.56, 83.25, 1061.77, 0.00, -5.00, 0.18,62758,,,
acc002, 154.05, 84.72, 1062.50, -0.92, -4.70, 0.43,62772,,,
acc002, 156.01, 85.94, 1065.67, -1.95, -4.09, 0.55,62786,,,
acc002, 156.25, 83.98, 1062.74, -2.75, -3.54, 0.55,62801,,,
acc002, 154.79, 85.21, 1059.08, -3.30, -3.17, 0.55,62815,,,
acc002, 157.96, 84.72, 1058.35, -4.21, -2.38, 0.73,62829,,,
acc002, 156.74, 82.52, 1053.96, -5.00, -1.46, 0.73,62844,,,
acc002, 157.23, 83.01, 1060.06, -5.80, -0.24, 0.79,62861,,,
acc002, 156.74, 80.08, 1056.88, -6.35, 0.73, 0.79,62877,,,
acc002, 157.47, 78.61, 1053.47, -6.59, 1.59, 0.79,62891,,,
acc002, 159.18, 79.10, 1056.15, -6.77, 2.26, 0.79,62905,,,
acc002, 157.47, 76.66, 1055.42, -6.84, 2.99, 0.73,62919,,,
acc002, 157.23, 76.66, 1055.18, -6.59, 3.91, 0.67,62933,,,
acc002, 154.54, 74.95, 1058.35, -6.16, 4.58, 0.61,62947,,,
acc002, 155.03, 72.51, 1057.62, -5.74, 5.25, 0.49,62961,,,
acc002, 151.61, 71.29, 1057.13, -5.07, 5.55, 0.49,62975,,,
acc002, 150.88, 70.31, 1055.18, -4.58, 5.74, 0.31,62989,,,
acc002, 150.63, 68.60, 1057.13, -3.30, 6.04, 0.18,63006,,,
acc002, 151.37, 69.82, 1059.08, -2.69, 6.23, 0.06,63020,,,
acc002, 149.41, 69.34, 1060.55, -1.65, 6.04, -0.06,63034,,,
acc002, 146.97, 66.89, 1063.96, -0.49, 5.86, -0.12,63048,,,
acc002, 147.71, 68.12, 1061.04, 0.67, 5.43, -0.24,63062,,,
acc002, 144.53, 69.09, 1062.74, 1.89, 4.88, -0.37,63077,,,
acc002, 146.73, 68.85, 1064.21, 2.81, 4.33, -0.49,63091,,,
acc002, 145.51, 71.29, 1065.67, 3.78, 3.60, -0.55,63105,,,
acc002, 145.26, 71.04, 1067.38, 4.70, 2.81, -0.61,63124,,,
acc002, 143.80, 71.78, 1068.36, 5.37, 1.95, -0.61,63138,,,
acc002, 141.85, 74.22, 1069.09, 6.04, 1.10, -0.61,63152,,,
acc002, 144.53, 74.22, 1069.34, 6.47, 0.18, -0.73,63166,,,
acc002, 143.80, 75.93, 1069.09, 6.77, -0.73, -0.67,63180,,,
acc002, 146.48, 78.12, 1073.49, 6.90, -1.34, -0.67,63194,,,
acc002, 145.75, 79.35, 1069.09, 6.90, -2.14, -0.61,63208,,,
acc002, 145.51, 79.83, 1071.78, 6.71, -2.81, -0.61,63223,,,
acc002, 146.48, 81.79, 1071.78, 6.41, -3.36, -0.61,63237,,,
acc002, 147.46, 82.52, 1068.60, 6.04, -3.91, -0.49,63253,,,
acc002, 148.93, 84.96, 1068.12, 5.31, -4.39, -0.37,63267,,,
acc002, 149.90, 84.96, 1068.85, 4.70, -4.58, -0.12,63281,,,
acc002, 149.66, 86.43, 1069.82, 4.03, -4.88, -0.12,63295,,,
acc002, 150.39, 84.96, 1065.92, 3.17, -4.82, 0.00,63310,,,
acc002, 153.56, 84.96, 1066.65, 2.62, -4.64, 0.06,63324,,,
acc002, 152.34, 86.18, 1063.23, 1.71, -4.39, 0.12,63338,,,
acc002, 155.03, 84.72, 1065.67, 0.85, -4.27, 0.18,63352,,,
acc002, 154.79, 83.74, 1062.26, -0.06, -3.72, 0.31,63367,,,
acc002, 156.01, 84.47, 1063.23, -1.10, -3.11, 0.43,63386,,,
acc002, 155.27, 84.72, 1061.28, -1.83, -2.44, 0.49,63400,,,
acc002, 156.01, 83.25, 1058.59, -2.38, -2.08, 0.49,63414,,,
acc002, 156.98, 82.03, 1057.37, -2.93, -1.28, 0.55,63428,,,
acc002, 156.01, 80.81, 1056.64, -3.48, -0.49, 0.61,63442,,,
acc002, 156.74, 79.59, 1054.93, -3.85, 0.24, 0.55,63456,,,
acc002, 154.79, 78.61, 1055.66, -4.09, 0.98, 0.55,63470,,,
acc002, 156.25, 79.35, 1054.44, -4.21, 1.46, 0.61,63484,,,
acc002, 154.79, 77.88, 1056.40, -4.52, 2.26, 0.55,63500,,,
acc002, 154.05, 77.39, 1051.27, -4.39, 2.69, 0.49,63514,,,
acc002, 154.05, 76.42, 1053.71, -4.46, 3.11, 0.55,63528,,,
acc002, 153.08, 74.71, 1052.00, -4.33, 3.72, 0.43,63542,,,
acc002, 154.05, 75.68, 1054.44, -4.21, 4.03, 0.31,63557,,,
acc002, 151.86, 74.22, 1053.71, -3.85, 4.33, 0.49,63571,,,
acc002, 151.37, 72.75, 1052.49, -3.54, 4.39, 0.24,63585,,,
acc002, 150.88, 73.73, 1057.62, -3.11, 4.33, 0.18,63599,,,
acc002, 150.15, 71.53, 1056.64, -2.93, 4.33, 0.31,63614,,,
acc002, 149.17, 72.27, 1055.91, -2.26, 4.09, 0.06,63633,,,
acc002, 149.66, 72.27, 1058.59, -1.83, 3.72, 0.00,63647,,,
acc002, 145.26, 74.46, 1060.06, -1.28, 3.42, 0.06,63661,,,
acc002, 145.02, 74.22, 1059.57, -0.92, 2.81, 0.06,63675,,,
acc002, 146.48, 74.46, 1064.21, -0.49, 2.20, 0.00,63689,,,
acc002, 145.75, 74.71, 1062.50, -0.24, 1.83, 0.00,63703,,,
acc002, 144.29, 74.95, 1062.01, 0.18, 1.16, -0.06,63718,,,
acc002, 146.48, 74.46, 1066.65, 0.49, 0.37, 0.06,63732,,,
acc002, 145.51, 76.90, 1069.34, 0.79, -0.24, 0.06,63746,,,
acc002, 145.26, 75.93, 1069.58, 0.98, -0.92, 0.00,63762,,,
acc002, 145.51, 76.17, 1069.09, 1.10, -1.53, -0.06,63776,,,
acc002, 147.71, 77.39, 1071.29, 1.28, -2.14, 0.06,63790,,,
acc002, 145.51, 78.61, 1071.78, 1.28, -2.56, 0.00,63804,,,
acc002, 147.46, 79.59, 1071.53, 1.34, -2.93, 0.12,63819,,,
acc002, 150.88, 78.12, 1071.53, 1.28, -3.23, 0.06,63833,,,
acc002, 150.15, 80.81, 1072.27, 1.16, -3.48, 0.18,63847,,,
acc002, 150.88, 79.10, 1069.09, 1.22, -3.66, 0.06,63861,,,
acc002, 153.56, 79.59, 1068.60, 1.04, -3.72, 0.12,63878,,,
acc002, 154.05, 76.90, 1068.60, 0.92, -3.66, 0.12,63895,,,
acc002, 153.32, 79.59, 1072.51, 0.79, -3.30, 0.06,63909,,,
acc002, 152.83, 79.59, 1070.80, 0.67, -3.17, 0.12,63923,,,
acc002, 156.49, 76.17, 1064.94, 0.61, -2.81, 0.18,63937,,,
acc002, 153.81, 79.35, 1067.87, 0.55, -2.44, 0.12,63951,,,
acc002, 156.74, 77.88, 1065.92, 0.31, -1.89, 0.06,63965,,,
acc002, 155.27, 77.39, 1065.92, 0.24, -1.40, 0.06,63979,,,
acc002, 156.98, 77.39, 1067.63, 0.24, -0.98, 0.06,63993,,,
acc002, 154.54, 78.61, 1063.48, 0.12, -0.37, 0.06,64009,,,
acc002, 154.54, 78.37, 1063.96, 0.18, 0.06, 0.00,64023,,,
acc002, 154.54, 77.88, 1062.99, 0.12, 0.43, 0.12,64037,,,
acc002, 155.03, 77.15, 1061.77, 0.12, 0.92, -0.06,64051,,,
acc002, 154.05, 74.95, 1061.04, 0.00, 1.22, 0.00,64066,,,
acc002, 151.86, 77.15, 1058.11, 0.06, 1.59, -0.06,64080,,,
acc002, 152.59, 77.88, 1058.35, 0.06, 1.77, -0.12,64094,,,
acc002, 152.10, 78.12, 1057.86, 0.06, 1.95, -0.06,64108,,,
acc002, 150.39, 77.39, 1060.55, 0.12, 2.08, -0.18,64123,,,
acc002, 151.37, 78.12, 1057.37, 0.00, 2.20, -0.18,64139,,,
acc002, 149.41, 78.86, 1056.15, -0.06, 2.08, -0.12,64156,,,
acc002, 147.95, 77.39, 1052.25, -0.12, 2.01, -0.12,64170,,,
acc002, 147.46, 78.12, 1054.93, -0.12, 1.83, 0.00,64184,,,
acc002, 147.46, 77.64, 1054.93, -0.18, 1.77, -0.06,64198,,,
acc002, 149.66, 79.35, 1052.49, -0.31, 1.46, -0.06,64212,,,
acc002, 147.95, 76.66, 1052.73, -0.43, 1.16, -0.06,64226,,,
acc002, 146.00, 76.90, 1055.18, -0.49, 0.92, 0.00,64240,,,
acc002, 145.26, 77.88, 1054.20, -0.61, 0.61, 0.06,64256,,,
acc002, 147.95, 77.15, 1053.22, -0.73, 0.37, 0.06,64270,,,
acc002, 146.00, 78.61, 1052.73, -0.92, 0.18, 0.06,64284,,,
acc002, 148.68, 78.86, 1053.96, -0.98, -0.06, 0.18,64298,,,
